Time,cmd_seq,cmd_sec,cmd_nsec,cmd_theta_a,cmd_beta_a,cmd_trq_r_a,cmd_trq_l_a,cmd_theta_b,cmd_beta_b,cmd_trq_r_b,cmd_trq_l_b,cmd_theta_c,cmd_beta_c,cmd_trq_r_c,cmd_trq_l_c,cmd_theta_d,cmd_beta_d,cmd_trq_r_d,cmd_trq_l_d,state_seq,state_sec,state_nsec,state_theta_a,state_beta_a,state_vel_r_a,state_vel_l_a,state_trq_r_a,state_trq_l_a,state_theta_b,state_beta_b,state_vel_r_b,state_vel_l_b,state_trq_r_b,state_trq_l_b,state_theta_c,state_beta_c,state_vel_r_c,state_vel_l_c,state_trq_r_c,state_trq_l_c,state_theta_d,state_beta_d,state_vel_r_d,state_vel_l_d,state_trq_r_d,state_trq_l_d,imu_seq,imu_sec,imu_nsec,imu_orien_x,imu_orien_y,imu_orien_z,imu_orien_w,imu_ang_vel_x,imu_ang_vel_y,imu_ang_vel_z,imu_lin_acc_x,imu_lin_acc_y,imu_lin_acc_z,imp_seq,imp_sec,imp_nsec,imp_cmd_theta_a,imp_cmd_beta_a,imp_cmd_Fx_a,imp_cmd_Fy_a,imp_cmd_theta_b,imp_cmd_beta_b,imp_cmd_Fx_b,imp_cmd_Fy_b,imp_cmd_theta_c,imp_cmd_beta_c,imp_cmd_Fx_c,imp_cmd_Fy_c,imp_cmd_theta_d,imp_cmd_beta_d,imp_cmd_Fx_d,imp_cmd_Fy_d,force_seq,force_sec,force_nsec,force_Fx_a,force_Fy_a,force_Fx_b,force_Fy_b,force_Fx_c,force_Fy_c,force_Fx_d,force_Fy_d,sim_sec,sim_nsec,sim_pos_x,sim_pos_y,sim_pos_z,sim_orien_x,sim_orien_y,sim_orien_z,sim_orien_w,sim_contact_state_a,sim_contact_state_b,sim_contact_state_c,sim_contact_state_d,power_seq,power_sec,power_nsec,v_0,i_0,v_1,i_1,v_2,i_2,v_3,i_3,v_4,i_4,v_5,i_5,v_6,i_6,v_7,i_7,v_8,i_8,v_9,i_9,v_10,i_10,v_11,i_11,dst_lf,dst_rf,dst_rr,dst_lr,camera_dist,camera_yaw
6.947,0,5,6000000,1.85747,0.47911,0,0,1.60467,0.129147,0,0,1.60467,-0.129147,0,0,1.85747,-0.47911,0,0,6944,6,945000000,1.82906,0.457375,0.000913189,0.000866982,-0.602228,4.51147,1.57984,0.0819324,0.000713367,0.000552825,2.01406,6.48241,1.57793,-0.0725169,-0.00111177,-0.000958317,-7.50109,-2.68875,1.8216,-0.451185,-0.00125687,-0.000601633,-5.73913,0.715864,6944,6,945000000,0.00178683,4.41688e-06,0.000196191,0.999998,-0.000121082,-4.9402e-06,8.28093e-05,-7.14785e-05,0.0350457,9.80997,0,0,0,0,0,0,0,0,0,0,0,0,0,0,0,0,0,0,0,0,0,0,0,0,0,0,0,0,0,0,6,945999999,-0.0203004,-0.000638867,0.248155,0.00178677,4.41422e-06,0.000196232,0.999998,1,1,1,1,0,0,0,0,0,0,0,0,0,0,0,0,0,0,0,0,0,0,0,0,0,0,0,0,0,0,0,0,0,0,0,NaN,NaN
6.947,0,5,6000000,1.85747,0.47911,0,0,1.60467,0.129147,0,0,1.60467,-0.129147,0,0,1.85747,-0.47911,0,0,6945,6,945999999,1.82906,0.457376,0.00091928,0.000865813,-0.602321,4.51139,1.57984,0.081933,0.000713514,0.000552831,2.01399,6.48236,1.57793,-0.072518,-0.00110566,-0.000956916,-7.501,-2.68867,1.8216,-0.451186,-0.0012465,-0.000603039,-5.73903,0.715921,6945,6,945999999,0.00178677,4.41422e-06,0.000196232,0.999998,-0.000121033,-5.14117e-06,8.28085e-05,-7.13124e-05,0.0350445,9.80997,0,0,0,0,0,0,0,0,0,0,0,0,0,0,0,0,0,0,0,0,0,0,0,0,0,0,0,0,0,0,6,947000000,-0.0203004,-0.000638839,0.248155,0.00178671,4.41147e-06,0.000196274,0.999998,1,1,1,1,0,0,0,0,0,0,0,0,0,0,0,0,0,0,0,0,0,0,0,0,0,0,0,0,0,0,0,0,0,0,0,NaN,NaN
6.948,0,6,947000000,1.85747,0.47911,0,0,1.60467,0.129147,0,0,1.60467,-0.129147,0,0,1.85747,-0.47911,0,0,6946,6,947000000,1.82906,0.457377,0.000925069,0.000864662,-0.602415,4.51131,1.57984,0.0819336,0.000713666,0.000552902,2.01393,6.48231,1.57793,-0.072519,-0.00109995,-0.000955533,-7.50092,-2.68858,1.8216,-0.451187,-0.00123636,-0.000604415,-5.73894,0.715978,6946,6,947000000,0.00178671,4.41147e-06,0.000196274,0.999998,-0.000120985,-5.34032e-06,8.28077e-05,-7.11805e-05,0.0350434,9.80997,0,0,0,0,0,0,0,0,0,0,0,0,0,0,0,0,0,0,0,0,0,0,0,0,0,0,0,0,0,0,6,947000000,-0.0203004,-0.000638839,0.248155,0.00178671,4.41147e-06,0.000196274,0.999998,1,1,1,1,0,0,0,0,0,0,0,0,0,0,0,0,0,0,0,0,0,0,0,0,0,0,0,0,0,0,0,0,0,0,0,NaN,NaN
6.95,1,6,948000000,1.85747,0.47911,0,0,1.60467,0.129147,0,0,1.60467,-0.129147,0,0,1.85747,-0.47911,0,0,6947,6,948000000,1.82906,0.457378,0.000930553,0.000863529,-0.602508,4.51124,1.57984,0.0819343,0.000713822,0.000553035,2.01387,6.48226,1.57793,-0.07252,-0.0010947,-0.00095417,-7.50083,-2.6885,1.8216,-0.451188,-0.00122647,-0.000605759,-5.73885,0.716035,6947,6,948000000,0.00178665,4.40861e-06,0.000196315,0.999998,-0.000120936,-5.53786e-06,8.28071e-05,-7.10831e-05,0.0350422,9.80998,0,0,0,0,0,0,0,0,0,0,0,0,0,0,0,0,0,0,0,0,0,0,0,0,0,0,0,0,0,0,6,948999999,-0.0203004,-0.000638783,0.248155,0.00178659,4.40566e-06,0.000196357,0.999998,1,1,1,1,0,0,0,0,0,0,0,0,0,0,0,0,0,0,0,0,0,0,0,0,0,0,0,0,0,0,0,0,0,0,0,NaN,NaN
6.95,2,6,950000000,1.85747,0.47911,0,0,1.60467,0.129147,0,0,1.60467,-0.129147,0,0,1.85747,-0.47911,0,0,6948,6,948999999,1.82906,0.457379,0.000935733,0.000862418,-0.602601,4.51116,1.57984,0.0819349,0.000713984,0.000553229,2.0138,6.48221,1.57793,-0.072521,-0.00108992,-0.000952825,-7.50074,-2.68842,1.8216,-0.451189,-0.00121687,-0.00060707,-5.73875,0.716092,6948,6,948999999,0.00178659,4.40566e-06,0.000196357,0.999998,-0.000120887,-5.73403e-06,8.28065e-05,-7.10201e-05,0.035041,9.80998,0,0,0,0,0,0,0,0,0,0,0,0,0,0,0,0,0,0,0,0,0,0,0,0,0,0,0,0,0,0,6,948999999,-0.0203004,-0.000638783,0.248155,0.00178659,4.40566e-06,0.000196357,0.999998,1,1,1,1,0,0,0,0,0,0,0,0,0,0,0,0,0,0,0,0,0,0,0,0,0,0,0,0,0,0,0,0,0,0,0,NaN,NaN
6.951,3,6,950000000,1.85747,0.47911,0,0,1.60467,0.129147,0,0,1.60467,-0.129147,0,0,1.85747,-0.47911,0,0,6949,6,950000000,1.82906,0.457379,0.000940609,0.000861329,-0.602694,4.51109,1.57984,0.0819355,0.00071415,0.000553481,2.01374,6.48216,1.57793,-0.0725221,-0.00108564,-0.000951502,-7.50065,-2.68833,1.8216,-0.45119,-0.00120758,-0.000608345,-5.73866,0.716149,6949,6,950000000,0.00178653,4.40261e-06,0.000196398,0.999998,-0.000120838,-5.92907e-06,8.28059e-05,-7.09917e-05,0.0350399,9.80998,0,0,0,0,0,0,0,0,0,0,0,0,0,0,0,0,0,0,0,0,0,0,0,0,0,0,0,0,0,0,6,950000000,-0.0203004,-0.000638756,0.248155,0.00178653,4.40261e-06,0.000196398,0.999998,1,1,1,1,0,0,0,0,0,0,0,0,0,0,0,0,0,0,0,0,0,0,0,0,0,0,0,0,0,0,0,0,0,0,0,NaN,NaN
6.952,4,6,951000000,1.85747,0.47911,0,0,1.60467,0.129147,0,0,1.60467,-0.129147,0,0,1.85747,-0.47911,0,0,6950,6,951000000,1.82906,0.45738,0.000945181,0.000860263,-0.602787,4.51101,1.57984,0.0819362,0.000714321,0.00055379,2.01367,6.48211,1.57793,-0.0725231,-0.00108186,-0.000950199,-7.50056,-2.68825,1.8216,-0.451191,-0.00119864,-0.000609581,-5.73857,0.716206,6950,6,951000000,0.00178647,4.39946e-06,0.000196439,0.999998,-0.00012079,-6.12323e-06,8.28054e-05,-7.09975e-05,0.0350387,9.80997,0,0,0,0,0,0,0,0,0,0,0,0,0,0,0,0,0,0,0,0,0,0,0,0,0,0,0,0,0,0,6,951000000,-0.0203004,-0.000638728,0.248155,0.00178647,4.39946e-06,0.000196439,0.999998,1,1,1,1,0,0,0,0,0,0,0,0,0,0,0,0,0,0,0,0,0,0,0,0,0,0,0,0,0,0,0,0,0,0,0,NaN,NaN
6.953,5,6,952000000,1.85747,0.47911,0,0,1.60467,0.129147,0,0,1.60467,-0.129147,0,0,1.85747,-0.47911,0,0,6951,6,952000000,1.82906,0.457381,0.000949451,0.000859224,-0.60288,4.51094,1.57984,0.0819368,0.000714497,0.000554153,2.01361,6.48206,1.57793,-0.0725241,-0.00107862,-0.000948919,-7.50046,-2.68817,1.8216,-0.451192,-0.00119006,-0.000610778,-5.73848,0.716263,6951,6,952000000,0.00178641,4.39622e-06,0.000196481,0.999998,-0.000120742,-6.31675e-06,8.28048e-05,-7.10376e-05,0.0350376,9.80997,0,0,0,0,0,0,0,0,0,0,0,0,0,0,0,0,0,0,0,0,0,0,0,0,0,0,0,0,0,0,6,952000000,-0.0203004,-0.0006387,0.248155,0.00178641,4.39622e-06,0.000196481,0.999998,1,1,1,1,0,0,0,0,0,0,0,0,0,0,0,0,0,0,0,0,0,0,0,0,0,0,0,0,0,0,0,0,0,0,0,NaN,NaN
6.955,6,6,953000000,1.85747,0.47911,0,0,1.60467,0.129147,0,0,1.60467,-0.129147,0,0,1.85747,-0.47911,0,0,6952,6,953000000,1.82906,0.457382,0.000953419,0.000858211,-0.602973,4.51086,1.57984,0.0819374,0.000714679,0.000554569,2.01354,6.48201,1.57793,-0.0725251,-0.00107592,-0.000947662,-7.50037,-2.68808,1.8216,-0.451192,-0.00118189,-0.000611932,-5.73839,0.71632,6952,6,953000000,0.00178635,4.39288e-06,0.000196522,0.999998,-0.000120693,-6.50988e-06,8.28043e-05,-7.11117e-05,0.0350365,9.80997,0,0,0,0,0,0,0,0,0,0,0,0,0,0,0,0,0,0,0,0,0,0,0,0,0,0,0,0,0,0,6,953999999,-0.0203004,-0.000638644,0.248155,0.00178629,4.38944e-06,0.000196564,0.999998,1,1,1,1,0,0,0,0,0,0,0,0,0,0,0,0,0,0,0,0,0,0,0,0,0,0,0,0,0,0,0,0,0,0,0,NaN,NaN
6.955,7,6,955000000,1.85747,0.47911,0,0,1.60467,0.129147,0,0,1.60467,-0.129147,0,0,1.85747,-0.47911,0,0,6953,6,953999999,1.82906,0.457383,0.000957087,0.000857226,-0.603066,4.51079,1.57984,0.0819381,0.000714866,0.000555035,2.01348,6.48196,1.57793,-0.0725261,-0.00107377,-0.000946431,-7.50028,-2.688,1.8216,-0.451193,-0.00117413,-0.000613041,-5.73829,0.716377,6953,6,953999999,0.00178629,4.38944e-06,0.000196564,0.999998,-0.000120645,-6.70289e-06,8.28038e-05,-7.12195e-05,0.0350353,9.80997,0,0,0,0,0,0,0,0,0,0,0,0,0,0,0,0,0,0,0,0,0,0,0,0,0,0,0,0,0,0,6,953999999,-0.0203004,-0.000638644,0.248155,0.00178629,4.38944e-06,0.000196564,0.999998,1,1,1,1,0,0,0,0,0,0,0,0,0,0,0,0,0,0,0,0,0,0,0,0,0,0,0,0,0,0,0,0,0,0,0,NaN,NaN
6.956,8,6,955000000,1.85747,0.47911,0,0,1.60467,0.129147,0,0,1.60467,-0.129147,0,0,1.85747,-0.47911,0,0,6954,6,955000000,1.82906,0.457384,0.000960459,0.000856271,-0.603158,4.51071,1.57984,0.0819387,0.000715059,0.000555549,2.01341,6.48191,1.57793,-0.0725271,-0.00107217,-0.000945228,-7.50018,-2.68792,1.8216,-0.451194,-0.00116681,-0.000614105,-5.7382,0.716434,6954,6,955000000,0.00178623,4.38591e-06,0.000196605,0.999998,-0.000120598,-6.89601e-06,8.28033e-05,-7.13608e-05,0.0350342,9.80997,0,0,0,0,0,0,0,0,0,0,0,0,0,0,0,0,0,0,0,0,0,0,0,0,0,0,0,0,0,0,6,955000000,-0.0203004,-0.000638616,0.248155,0.00178623,4.38591e-06,0.000196605,0.999998,1,1,1,1,0,0,0,0,0,0,0,0,0,0,0,0,0,0,0,0,0,0,0,0,0,0,0,0,0,0,0,0,0,0,0,NaN,NaN
6.958,9,6,956000000,1.85747,0.47911,0,0,1.60467,0.129147,0,0,1.60467,-0.129147,0,0,1.85747,-0.47911,0,0,6955,6,956000000,1.82906,0.457385,0.000963535,0.000855347,-0.60325,4.51063,1.57984,0.0819393,0.000715257,0.00055611,2.01335,6.48186,1.57793,-0.0725281,-0.00107112,-0.000944054,-7.50009,-2.68783,1.8216,-0.451195,-0.00115996,-0.000615121,-5.73811,0.716491,6955,6,956000000,0.00178617,4.38228e-06,0.000196646,0.999998,-0.000120551,-7.08949e-06,8.28027e-05,-7.1535e-05,0.0350331,9.80997,0,0,0,0,0,0,0,0,0,0,0,0,0,0,0,0,0,0,0,0,0,0,0,0,0,0,0,0,0,0,6,956999999,-0.0203004,-0.000638561,0.248154,0.00178611,4.37855e-06,0.000196688,0.999998,1,1,1,1,0,0,0,0,0,0,0,0,0,0,0,0,0,0,0,0,0,0,0,0,0,0,0,0,0,0,0,0,0,0,0,NaN,NaN
6.958,10,6,958000000,1.85747,0.47911,0,0,1.60467,0.129147,0,0,1.60467,-0.129147,0,0,1.85747,-0.47911,0,0,6956,6,956999999,1.82906,0.457386,0.000966319,0.000854456,-0.603342,4.51056,1.57984,0.08194,0.000715461,0.000556714,2.01328,6.48181,1.57793,-0.0725291,-0.00107063,-0.000942912,-7.49999,-2.68775,1.8216,-0.451196,-0.00115358,-0.000616088,-5.73802,0.716549,6956,6,956999999,0.00178611,4.37855e-06,0.000196688,0.999998,-0.000120504,-7.28359e-06,8.28021e-05,-7.17419e-05,0.035032,9.80997,0,0,0,0,0,0,0,0,0,0,0,0,0,0,0,0,0,0,0,0,0,0,0,0,0,0,0,0,0,0,6,956999999,-0.0203004,-0.000638561,0.248154,0.00178611,4.37855e-06,0.000196688,0.999998,1,1,1,1,0,0,0,0,0,0,0,0,0,0,0,0,0,0,0,0,0,0,0,0,0,0,0,0,0,0,0,0,0,0,0,NaN,NaN
6.959,11,6,958000000,1.85747,0.47911,0,0,1.60467,0.129147,0,0,1.60467,-0.129147,0,0,1.85747,-0.47911,0,0,6957,6,958000000,1.82906,0.457387,0.000968814,0.000853598,-0.603433,4.51048,1.57984,0.0819406,0.000715672,0.00055736,2.01322,6.48176,1.57793,-0.0725301,-0.00107069,-0.000941804,-7.4999,-2.68767,1.8216,-0.451197,-0.0011477,-0.000617005,-5.73792,0.716606,6957,6,958000000,0.00178605,4.37472e-06,0.000196729,0.999998,-0.000120457,-7.47852e-06,8.28015e-05,-7.19809e-05,0.035031,9.80997,0,0,0,0,0,0,0,0,0,0,0,0,0,0,0,0,0,0,0,0,0,0,0,0,0,0,0,0,0,0,6,958000000,-0.0203004,-0.000638533,0.248154,0.00178605,4.37472e-06,0.000196729,0.999998,1,1,1,1,0,0,0,0,0,0,0,0,0,0,0,0,0,0,0,0,0,0,0,0,0,0,0,0,0,0,0,0,0,0,0,NaN,NaN
6.96,12,6,959000000,1.85747,0.47911,0,0,1.60467,0.129147,0,0,1.60467,-0.129147,0,0,1.85747,-0.47911,0,0,6958,6,959000000,1.82906,0.457388,0.000971025,0.000852775,-0.603525,4.51041,1.57984,0.0819412,0.000715889,0.000558047,2.01315,6.48171,1.57793,-0.0725311,-0.00107129,-0.000940735,-7.4998,-2.68759,1.8216,-0.451198,-0.00114232,-0.000617869,-5.73783,0.716663,6958,6,959000000,0.00178599,4.3708e-06,0.00019677,0.999998,-0.000120411,-7.67452e-06,8.28008e-05,-7.22517e-05,0.0350299,9.80997,0,0,0,0,0,0,0,0,0,0,0,0,0,0,0,0,0,0,0,0,0,0,0,0,0,0,0,0,0,0,6,959000000,-0.0203004,-0.000638505,0.248154,0.00178599,4.3708e-06,0.00019677,0.999998,1,1,1,1,0,0,0,0,0,0,0,0,0,0,0,0,0,0,0,0,0,0,0,0,0,0,0,0,0,0,0,0,0,0,0,NaN,NaN
6.961,13,6,960000000,1.85747,0.47911,0,0,1.60467,0.129147,0,0,1.60467,-0.129147,0,0,1.85747,-0.47911,0,0,6959,6,960000000,1.82906,0.457389,0.000972954,0.000851987,-0.603616,4.51033,1.57984,0.0819419,0.000716112,0.000558771,2.01309,6.48165,1.57793,-0.0725321,-0.00107241,-0.000939706,-7.4997,-2.6875,1.8216,-0.451199,-0.00113747,-0.00061868,-5.73774,0.71672,6959,6,960000000,0.00178593,4.36678e-06,0.000196812,0.999998,-0.000120366,-7.87179e-06,8.28001e-05,-7.25538e-05,0.0350288,9.80997,0,0,0,0,0,0,0,0,0,0,0,0,0,0,0,0,0,0,0,0,0,0,0,0,0,0,0,0,0,0,6,960000000,-0.0203004,-0.000638478,0.248154,0.00178593,4.36678e-06,0.000196812,0.999998,1,1,1,1,0,0,0,0,0,0,0,0,0,0,0,0,0,0,0,0,0,0,0,0,0,0,0,0,0,0,0,0,0,0,0,NaN,NaN
6.963,14,6,961000000,1.85747,0.47911,0,0,1.60467,0.129147,0,0,1.60467,-0.129147,0,0,1.85747,-0.47911,0,0,6960,6,961000000,1.82906,0.457389,0.000974606,0.000851237,-0.603706,4.51026,1.57984,0.0819425,0.000716343,0.000559531,2.01302,6.4816,1.57793,-0.0725332,-0.00107405,-0.000938722,-7.4996,-2.68742,1.8216,-0.4512,-0.00113314,-0.000619436,-5.73764,0.716777,6960,6,961000000,0.00178587,4.36266e-06,0.000196853,0.999998,-0.000120321,-8.07056e-06,8.27993e-05,-7.28866e-05,0.0350278,9.80997,0,0,0,0,0,0,0,0,0,0,0,0,0,0,0,0,0,0,0,0,0,0,0,0,0,0,0,0,0,0,6,961999999,-0.0203004,-0.000638422,0.248154,0.00178581,4.35844e-06,0.000196895,0.999998,1,1,1,1,0,0,0,0,0,0,0,0,0,0,0,0,0,0,0,0,0,0,0,0,0,0,0,0,0,0,0,0,0,0,0,NaN,NaN
6.963,15,6,963000000,1.85747,0.47911,0,0,1.60467,0.129147,0,0,1.60467,-0.129147,0,0,1.85747,-0.47911,0,0,6961,6,961999999,1.82906,0.45739,0.000975985,0.000850524,-0.603797,4.51018,1.57984,0.0819432,0.000716581,0.000560325,2.01296,6.48155,1.57793,-0.0725342,-0.00107619,-0.000937787,-7.4995,-2.68734,1.82161,-0.4512,-0.00112935,-0.000620137,-5.73755,0.716834,6961,6,961999999,0.00178581,4.35844e-06,0.000196895,0.999998,-0.000120276,-8.27099e-06,8.27984e-05,-7.32495e-05,0.0350268,9.80997,0,0,0,0,0,0,0,0,0,0,0,0,0,0,0,0,0,0,0,0,0,0,0,0,0,0,0,0,0,0,6,961999999,-0.0203004,-0.000638422,0.248154,0.00178581,4.35844e-06,0.000196895,0.999998,1,1,1,1,0,0,0,0,0,0,0,0,0,0,0,0,0,0,0,0,0,0,0,0,0,0,0,0,0,0,0,0,0,0,0,NaN,NaN
6.964,16,6,963000000,1.85747,0.47911,0,0,1.60467,0.129147,0,0,1.60467,-0.129147,0,0,1.85747,-0.47911,0,0,6962,6,963000000,1.82906,0.457391,0.000977096,0.00084985,-0.603886,4.51011,1.57984,0.0819438,0.000716826,0.000561151,2.01289,6.4815,1.57793,-0.0725352,-0.00107881,-0.000936904,-7.4994,-2.68725,1.82161,-0.451201,-0.0011261,-0.000620781,-5.73745,0.716891,6962,6,963000000,0.00178575,4.35411e-06,0.000196936,0.999998,-0.000120233,-8.47328e-06,8.27974e-05,-7.36421e-05,0.0350258,9.80996,0,0,0,0,0,0,0,0,0,0,0,0,0,0,0,0,0,0,0,0,0,0,0,0,0,0,0,0,0,0,6,963000000,-0.0203005,-0.000638395,0.248154,0.00178575,4.35411e-06,0.000196936,0.999998,1,1,1,1,0,0,0,0,0,0,0,0,0,0,0,0,0,0,0,0,0,0,0,0,0,0,0,0,0,0,0,0,0,0,0,NaN,NaN
6.966,17,6,964000000,1.85747,0.47911,0,0,1.60467,0.129147,0,0,1.60467,-0.129147,0,0,1.85747,-0.47911,0,0,6963,6,964000000,1.82906,0.457392,0.000977945,0.000849216,-0.603976,4.51003,1.57984,0.0819444,0.00071708,0.000562007,2.01283,6.48145,1.57793,-0.0725362,-0.00108189,-0.000936079,-7.4993,-2.68717,1.82161,-0.451202,-0.0011234,-0.000621368,-5.73735,0.716948,6963,6,964000000,0.00178569,4.34969e-06,0.000196977,0.999998,-0.00012019,-8.67759e-06,8.27963e-05,-7.40638e-05,0.0350248,9.80996,0,0,0,0,0,0,0,0,0,0,0,0,0,0,0,0,0,0,0,0,0,0,0,0,0,0,0,0,0,0,6,964999999,-0.0203005,-0.000638339,0.248154,0.00178563,4.34516e-06,0.000197019,0.999998,1,1,1,1,0,0,0,0,0,0,0,0,0,0,0,0,0,0,0,0,0,0,0,0,0,0,0,0,0,0,0,0,0,0,0,NaN,NaN
6.966,18,6,966000000,1.85747,0.47911,0,0,1.60467,0.129147,0,0,1.60467,-0.129147,0,0,1.85747,-0.47911,0,0,6964,6,964999999,1.82906,0.457393,0.000978536,0.000848621,-0.604065,4.50996,1.57984,0.0819451,0.000717341,0.000562892,2.01276,6.4814,1.57793,-0.0725372,-0.0010854,-0.000935315,-7.49919,-2.68709,1.82161,-0.451203,-0.00112124,-0.000621898,-5.73726,0.717005,6964,6,964999999,0.00178563,4.34516e-06,0.000197019,0.999998,-0.000120148,-8.88406e-06,8.27951e-05,-7.4514e-05,0.0350238,9.80996,0,0,0,0,0,0,0,0,0,0,0,0,0,0,0,0,0,0,0,0,0,0,0,0,0,0,0,0,0,0,6,964999999,-0.0203005,-0.000638339,0.248154,0.00178563,4.34516e-06,0.000197019,0.999998,1,1,1,1,0,0,0,0,0,0,0,0,0,0,0,0,0,0,0,0,0,0,0,0,0,0,0,0,0,0,0,0,0,0,0,NaN,NaN
6.967,19,6,966000000,1.85747,0.47911,0,0,1.60467,0.129147,0,0,1.60467,-0.129147,0,0,1.85747,-0.47911,0,0,6965,6,966000000,1.82906,0.457394,0.000978874,0.000848068,-0.604154,4.50988,1.57984,0.0819457,0.000717611,0.000563803,2.0127,6.48134,1.57793,-0.0725382,-0.00108931,-0.000934619,-7.49909,-2.68701,1.82161,-0.451204,-0.00111964,-0.000622369,-5.73716,0.717062,6965,6,966000000,0.00178557,4.34053e-06,0.00019706,0.999998,-0.000120106,-9.09282e-06,8.27938e-05,-7.49919e-05,0.0350228,9.80996,0,0,0,0,0,0,0,0,0,0,0,0,0,0,0,0,0,0,0,0,0,0,0,0,0,0,0,0,0,0,6,966000000,-0.0203005,-0.000638312,0.248154,0.00178557,4.34053e-06,0.00019706,0.999998,1,1,1,1,0,0,0,0,0,0,0,0,0,0,0,0,0,0,0,0,0,0,0,0,0,0,0,0,0,0,0,0,0,0,0,NaN,NaN
6.968,20,6,967000000,1.85747,0.47911,0,0,1.60467,0.129147,0,0,1.60467,-0.129147,0,0,1.85747,-0.47911,0,0,6966,6,967000000,1.82906,0.457395,0.000978966,0.000847556,-0.604242,4.50981,1.57984,0.0819464,0.00071789,0.000564739,2.01263,6.48129,1.57793,-0.0725392,-0.00109361,-0.000933994,-7.49898,-2.68692,1.82161,-0.451205,-0.00111858,-0.000622782,-5.73706,0.717118,6966,6,967000000,0.00178551,4.33579e-06,0.000197102,0.999998,-0.000120066,-9.30398e-06,8.27924e-05,-7.5497e-05,0.0350219,9.80996,0,0,0,0,0,0,0,0,0,0,0,0,0,0,0,0,0,0,0,0,0,0,0,0,0,0,0,0,0,0,6,967000000,-0.0203005,-0.000638284,0.248154,0.00178551,4.33579e-06,0.000197102,0.999998,1,1,1,1,0,0,0,0,0,0,0,0,0,0,0,0,0,0,0,0,0,0,0,0,0,0,0,0,0,0,0,0,0,0,0,NaN,NaN
6.969,21,6,968000000,1.85747,0.47911,0,0,1.60467,0.129147,0,0,1.60467,-0.129147,0,0,1.85747,-0.47911,0,0,6967,6,968000000,1.82906,0.457396,0.000978816,0.000847085,-0.60433,4.50973,1.57984,0.081947,0.000718177,0.000565698,2.01257,6.48124,1.57793,-0.0725402,-0.00109825,-0.000933447,-7.49888,-2.68684,1.82161,-0.451206,-0.00111806,-0.000623136,-5.73696,0.717175,6967,6,968000000,0.00178545,4.33095e-06,0.000197143,0.999998,-0.000120027,-9.51765e-06,8.27908e-05,-7.60286e-05,0.0350209,9.80996,0,0,0,0,0,0,0,0,0,0,0,0,0,0,0,0,0,0,0,0,0,0,0,0,0,0,0,0,0,0,6,968000000,-0.0203005,-0.000638256,0.248154,0.00178545,4.33095e-06,0.000197143,0.999998,1,1,1,1,0,0,0,0,0,0,0,0,0,0,0,0,0,0,0,0,0,0,0,0,0,0,0,0,0,0,0,0,0,0,0,NaN,NaN
6.971,22,6,969000000,1.85747,0.47911,0,0,1.60467,0.129147,0,0,1.60467,-0.129147,0,0,1.85747,-0.47911,0,0,6968,6,969000000,1.82906,0.457397,0.000978432,0.000846657,-0.604417,4.50966,1.57984,0.0819476,0.000718475,0.000566679,2.0125,6.48118,1.57793,-0.0725412,-0.00110322,-0.000932983,-7.49877,-2.68676,1.82161,-0.451207,-0.00111808,-0.000623431,-5.73686,0.717232,6968,6,969000000,0.00178539,4.326e-06,0.000197184,0.999998,-0.000119989,-9.7339e-06,8.27891e-05,-7.65859e-05,0.03502,9.80996,0,0,0,0,0,0,0,0,0,0,0,0,0,0,0,0,0,0,0,0,0,0,0,0,0,0,0,0,0,0,6,969999999,-0.0203005,-0.000638201,0.248154,0.00178533,4.32093e-06,0.000197226,0.999998,1,1,1,1,0,0,0,0,0,0,0,0,0,0,0,0,0,0,0,0,0,0,0,0,0,0,0,0,0,0,0,0,0,0,0,NaN,NaN
6.971,23,6,971000000,1.85747,0.47911,0,0,1.60467,0.129147,0,0,1.60467,-0.129147,0,0,1.85747,-0.47911,0,0,6969,6,969999999,1.82906,0.457398,0.000977819,0.000846271,-0.604504,4.50958,1.57984,0.0819483,0.000718782,0.000567679,2.01244,6.48113,1.57793,-0.0725423,-0.00110846,-0.000932608,-7.49866,-2.68667,1.82161,-0.451207,-0.00111863,-0.000623666,-5.73676,0.717288,6969,6,969999999,0.00178533,4.32093e-06,0.000197226,0.999998,-0.000119952,-9.95279e-06,8.27872e-05,-7.71681e-05,0.0350191,9.80995,0,0,0,0,0,0,0,0,0,0,0,0,0,0,0,0,0,0,0,0,0,0,0,0,0,0,0,0,0,0,6,969999999,-0.0203005,-0.000638201,0.248154,0.00178533,4.32093e-06,0.000197226,0.999998,1,1,1,1,0,0,0,0,0,0,0,0,0,0,0,0,0,0,0,0,0,0,0,0,0,0,0,0,0,0,0,0,0,0,0,NaN,NaN
6.972,24,6,971000000,1.85747,0.47911,0,0,1.60467,0.129147,0,0,1.60467,-0.129147,0,0,1.85747,-0.47911,0,0,6970,6,971000000,1.82906,0.457399,0.000976983,0.000845928,-0.604591,4.5095,1.57984,0.0819489,0.0007191,0.000568698,2.01237,6.48108,1.57793,-0.0725433,-0.00111397,-0.000932329,-7.49855,-2.68659,1.82161,-0.451208,-0.0011197,-0.000623843,-5.73666,0.717345,6970,6,971000000,0.00178527,4.31576e-06,0.000197267,0.999998,-0.000119916,-1.01744e-05,8.27852e-05,-7.77744e-05,0.0350183,9.80995,0,0,0,0,0,0,0,0,0,0,0,0,0,0,0,0,0,0,0,0,0,0,0,0,0,0,0,0,0,0,6,971000000,-0.0203005,-0.000638173,0.248154,0.00178527,4.31576e-06,0.000197267,0.999998,1,1,1,1,0,0,0,0,0,0,0,0,0,0,0,0,0,0,0,0,0,0,0,0,0,0,0,0,0,0,0,0,0,0,0,NaN,NaN
6.974,25,6,972000000,1.85747,0.47911,0,0,1.60467,0.129147,0,0,1.60467,-0.129147,0,0,1.85747,-0.47911,0,0,6971,6,972000000,1.82906,0.4574,0.00097593,0.000845627,-0.604677,4.50943,1.57984,0.0819496,0.000719428,0.000569734,2.01231,6.48103,1.57793,-0.0725443,-0.00111968,-0.00093215,-7.49844,-2.68651,1.82161,-0.451209,-0.00112128,-0.000623962,-5.73655,0.717401,6971,6,972000000,0.00178521,4.31048e-06,0.000197309,0.999998,-0.000119882,-1.03986e-05,8.27831e-05,-7.8404e-05,0.0350174,9.80995,0,0,0,0,0,0,0,0,0,0,0,0,0,0,0,0,0,0,0,0,0,0,0,0,0,0,0,0,0,0,6,972999999,-0.0203005,-0.000638118,0.248154,0.00178515,4.30508e-06,0.00019735,0.999998,1,1,1,1,0,0,0,0,0,0,0,0,0,0,0,0,0,0,0,0,0,0,0,0,0,0,0,0,0,0,0,0,0,0,0,NaN,NaN
6.974,26,6,974000000,1.85747,0.47911,0,0,1.60467,0.129147,0,0,1.60467,-0.129147,0,0,1.85747,-0.47911,0,0,6972,6,972999999,1.82906,0.4574,0.000974668,0.00084537,-0.604762,4.50935,1.57984,0.0819502,0.000719767,0.000570786,2.01224,6.48097,1.57793,-0.0725453,-0.00112558,-0.000932078,-7.49833,-2.68642,1.82161,-0.45121,-0.00112336,-0.000624022,-5.73645,0.717457,6972,6,972999999,0.00178515,4.30508e-06,0.00019735,0.999998,-0.000119849,-1.06256e-05,8.27807e-05,-7.90558e-05,0.0350166,9.80995,0,0,0,0,0,0,0,0,0,0,0,0,0,0,0,0,0,0,0,0,0,0,0,0,0,0,0,0,0,0,6,972999999,-0.0203005,-0.000638118,0.248154,0.00178515,4.30508e-06,0.00019735,0.999998,1,1,1,1,0,0,0,0,0,0,0,0,0,0,0,0,0,0,0,0,0,0,0,0,0,0,0,0,0,0,0,0,0,0,0,NaN,NaN
6.975,27,6,974000000,1.85747,0.47911,0,0,1.60467,0.129147,0,0,1.60467,-0.129147,0,0,1.85747,-0.47911,0,0,6973,6,974000000,1.82906,0.457401,0.000973202,0.000845155,-0.604847,4.50928,1.57984,0.0819509,0.000720117,0.000571852,2.01218,6.48092,1.57793,-0.0725464,-0.00113162,-0.000932119,-7.49821,-2.68634,1.82161,-0.451211,-0.00112592,-0.000624024,-5.73634,0.717514,6973,6,974000000,0.00178509,4.29956e-06,0.000197391,0.999998,-0.000119817,-1.08553e-05,8.27782e-05,-7.97288e-05,0.0350157,9.80995,0,0,0,0,0,0,0,0,0,0,0,0,0,0,0,0,0,0,0,0,0,0,0,0,0,0,0,0,0,0,6,974000000,-0.0203005,-0.000638091,0.248154,0.00178509,4.29956e-06,0.000197391,0.999998,1,1,1,1,0,0,0,0,0,0,0,0,0,0,0,0,0,0,0,0,0,0,0,0,0,0,0,0,0,0,0,0,0,0,0,NaN,NaN
6.976,28,6,975000000,1.85747,0.47911,0,0,1.60467,0.129147,0,0,1.60467,-0.129147,0,0,1.85747,-0.47911,0,0,6974,6,975000000,1.82906,0.457402,0.000971539,0.000844982,-0.604932,4.5092,1.57984,0.0819515,0.00072048,0.000572931,2.01211,6.48087,1.57793,-0.0725474,-0.00113777,-0.000932281,-7.4981,-2.68625,1.82161,-0.451212,-0.00112896,-0.000623968,-5.73624,0.71757,6974,6,975000000,0.00178503,4.29393e-06,0.000197433,0.999998,-0.000119788,-1.10876e-05,8.27755e-05,-8.0422e-05,0.035015,9.80995,0,0,0,0,0,0,0,0,0,0,0,0,0,0,0,0,0,0,0,0,0,0,0,0,0,0,0,0,0,0,6,975000000,-0.0203005,-0.000638063,0.248154,0.00178503,4.29393e-06,0.000197433,0.999998,1,1,1,1,0,0,0,0,0,0,0,0,0,0,0,0,0,0,0,0,0,0,0,0,0,0,0,0,0,0,0,0,0,0,0,NaN,NaN
6.977,29,6,976000000,1.85747,0.47911,0,0,1.60467,0.129147,0,0,1.60467,-0.129147,0,0,1.85747,-0.47911,0,0,6975,6,976000000,1.82906,0.457403,0.000969686,0.000844852,-0.605016,4.50913,1.57984,0.0819522,0.000720854,0.000574021,2.01205,6.48081,1.57793,-0.0725484,-0.00114399,-0.000932568,-7.49799,-2.68617,1.82161,-0.451213,-0.00113246,-0.000623856,-5.73613,0.717626,6975,6,976000000,0.00178497,4.28819e-06,0.000197474,0.999998,-0.000119759,-1.13225e-05,8.27727e-05,-8.11341e-05,0.0350142,9.80994,0,0,0,0,0,0,0,0,0,0,0,0,0,0,0,0,0,0,0,0,0,0,0,0,0,0,0,0,0,0,6,976000000,-0.0203005,-0.000638035,0.248154,0.00178497,4.28819e-06,0.000197474,0.999998,1,1,1,1,0,0,0,0,0,0,0,0,0,0,0,0,0,0,0,0,0,0,0,0,0,0,0,0,0,0,0,0,0,0,0,NaN,NaN
6.979,30,6,977000000,1.85747,0.47911,0,0,1.60467,0.129147,0,0,1.60467,-0.129147,0,0,1.85747,-0.47911,0,0,6976,6,977000000,1.82906,0.457404,0.000967649,0.000844764,-0.605099,4.50905,1.57984,0.0819528,0.000721241,0.000575122,2.01198,6.48076,1.57793,-0.0725495,-0.00115023,-0.000932988,-7.49787,-2.68609,1.82161,-0.451214,-0.0011364,-0.000623689,-5.73602,0.717681,6976,6,977000000,0.00178491,4.28232e-06,0.000197515,0.999998,-0.000119733,-1.15599e-05,8.27696e-05,-8.1864e-05,0.0350134,9.80994,0,0,0,0,0,0,0,0,0,0,0,0,0,0,0,0,0,0,0,0,0,0,0,0,0,0,0,0,0,0,6,977999999,-0.0203005,-0.00063798,0.248154,0.00178485,4.27634e-06,0.000197557,0.999998,1,1,1,1,0,0,0,0,0,0,0,0,0,0,0,0,0,0,0,0,0,0,0,0,0,0,0,0,0,0,0,0,0,0,0,NaN,NaN
6.979,31,6,979000000,1.85747,0.47911,0,0,1.60467,0.129147,0,0,1.60467,-0.129147,0,0,1.85747,-0.47911,0,0,6977,6,977999999,1.82906,0.457405,0.000965435,0.000844718,-0.605182,4.50897,1.57984,0.0819535,0.00072164,0.000576233,2.01191,6.4807,1.57793,-0.0725505,-0.00115646,-0.000933546,-7.49776,-2.686,1.82161,-0.451214,-0.00114077,-0.000623465,-5.73591,0.717737,6977,6,977999999,0.00178485,4.27634e-06,0.000197557,0.999998,-0.000119709,-1.17998e-05,8.27664e-05,-8.26103e-05,0.0350127,9.80994,0,0,0,0,0,0,0,0,0,0,0,0,0,0,0,0,0,0,0,0,0,0,0,0,0,0,0,0,0,0,6,979000000,-0.0203005,-0.000637953,0.248154,0.00178479,4.27023e-06,0.000197598,0.999998,1,1,1,1,0,0,0,0,0,0,0,0,0,0,0,0,0,0,0,0,0,0,0,0,0,0,0,0,0,0,0,0,0,0,0,NaN,NaN
6.98,32,6,979000000,1.85747,0.47911,0,0,1.60467,0.129147,0,0,1.60467,-0.129147,0,0,1.85747,-0.47911,0,0,6978,6,979000000,1.82906,0.457406,0.000963051,0.000844713,-0.605265,4.5089,1.57984,0.0819541,0.000722053,0.000577353,2.01185,6.48065,1.57793,-0.0725516,-0.00116265,-0.000934249,-7.49764,-2.68591,1.82161,-0.451215,-0.00114554,-0.000623188,-5.7358,0.717793,6978,6,979000000,0.00178479,4.27023e-06,0.000197598,0.999998,-0.000119686,-1.2042e-05,8.27629e-05,-8.33714e-05,0.035012,9.80994,0,0,0,0,0,0,0,0,0,0,0,0,0,0,0,0,0,0,0,0,0,0,0,0,0,0,0,0,0,0,6,979000000,-0.0203005,-0.000637953,0.248154,0.00178479,4.27023e-06,0.000197598,0.999998,1,1,1,1,0,0,0,0,0,0,0,0,0,0,0,0,0,0,0,0,0,0,0,0,0,0,0,0,0,0,0,0,0,0,0,NaN,NaN
6.982,33,6,980000000,1.85747,0.47911,0,0,1.60467,0.129147,0,0,1.60467,-0.129147,0,0,1.85747,-0.47911,0,0,6979,6,980000000,1.82906,0.457407,0.000960503,0.000844749,-0.605347,4.50882,1.57984,0.0819548,0.000722479,0.00057848,2.01178,6.4806,1.57793,-0.0725526,-0.00116874,-0.000935103,-7.49753,-2.68583,1.82161,-0.451216,-0.0011507,-0.000622857,-5.73568,0.717848,6979,6,980000000,0.00178473,4.264e-06,0.00019764,0.999998,-0.000119666,-1.22864e-05,8.27593e-05,-8.4146e-05,0.0350113,9.80994,0,0,0,0,0,0,0,0,0,0,0,0,0,0,0,0,0,0,0,0,0,0,0,0,0,0,0,0,0,0,6,980999999,-0.0203005,-0.000637898,0.248153,0.00178467,4.25765e-06,0.000197681,0.999998,1,1,1,1,0,0,0,0,0,0,0,0,0,0,0,0,0,0,0,0,0,0,0,0,0,0,0,0,0,0,0,0,0,0,0,NaN,NaN
6.982,34,6,982000000,1.85747,0.47911,0,0,1.60467,0.129147,0,0,1.60467,-0.129147,0,0,1.85747,-0.47911,0,0,6980,6,980999999,1.82906,0.457408,0.000957797,0.000844825,-0.605428,4.50875,1.57984,0.0819554,0.000722919,0.000579613,2.01172,6.48054,1.57793,-0.0725537,-0.0011747,-0.000936113,-7.49741,-2.68574,1.82161,-0.451217,-0.00115623,-0.000622475,-5.73557,0.717904,6980,6,980999999,0.00178467,4.25765e-06,0.000197681,0.999998,-0.000119647,-1.25328e-05,8.27555e-05,-8.49323e-05,0.0350107,9.80994,0,0,0,0,0,0,0,0,0,0,0,0,0,0,0,0,0,0,0,0,0,0,0,0,0,0,0,0,0,0,6,980999999,-0.0203005,-0.000637898,0.248153,0.00178467,4.25765e-06,0.000197681,0.999998,1,1,1,1,0,0,0,0,0,0,0,0,0,0,0,0,0,0,0,0,0,0,0,0,0,0,0,0,0,0,0,0,0,0,0,NaN,NaN
6.983,35,6,982000000,1.85747,0.47911,0,0,1.60467,0.129147,0,0,1.60467,-0.129147,0,0,1.85747,-0.47911,0,0,6981,6,982000000,1.82906,0.457409,0.000954942,0.000844941,-0.605509,4.50867,1.57984,0.0819561,0.000723373,0.000580753,2.01165,6.48049,1.57793,-0.0725547,-0.0011805,-0.000937286,-7.49729,-2.68566,1.82161,-0.451218,-0.0011621,-0.00062204,-5.73545,0.717959,6981,6,982000000,0.00178461,4.25117e-06,0.000197722,0.999998,-0.000119631,-1.27812e-05,8.27515e-05,-8.57286e-05,0.03501,9.80993,0,0,0,0,0,0,0,0,0,0,0,0,0,0,0,0,0,0,0,0,0,0,0,0,0,0,0,0,0,0,6,982000000,-0.0203005,-0.00063787,0.248153,0.00178461,4.25117e-06,0.000197722,0.999998,1,1,1,1,0,0,0,0,0,0,0,0,0,0,0,0,0,0,0,0,0,0,0,0,0,0,0,0,0,0,0,0,0,0,0,NaN,NaN
6.984,36,6,983000000,1.85747,0.47911,0,0,1.60467,0.129147,0,0,1.60467,-0.129147,0,0,1.85747,-0.47911,0,0,6982,6,983000000,1.82906,0.457409,0.000951943,0.000845095,-0.60559,4.50859,1.57984,0.0819567,0.000723841,0.000581898,2.01159,6.48043,1.57793,-0.0725558,-0.00118608,-0.000938626,-7.49718,-2.68557,1.82161,-0.451219,-0.00116831,-0.000621556,-5.73534,0.718014,6982,6,983000000,0.00178455,4.24457e-06,0.000197764,0.999998,-0.000119617,-1.30312e-05,8.27473e-05,-8.6533e-05,0.0350094,9.80993,0,0,0,0,0,0,0,0,0,0,0,0,0,0,0,0,0,0,0,0,0,0,0,0,0,0,0,0,0,0,6,983000000,-0.0203005,-0.000637842,0.248153,0.00178455,4.24457e-06,0.000197764,0.999998,1,1,1,1,0,0,0,0,0,0,0,0,0,0,0,0,0,0,0,0,0,0,0,0,0,0,0,0,0,0,0,0,0,0,0,NaN,NaN
6.985,37,6,984000000,1.85747,0.47911,0,0,1.60467,0.129147,0,0,1.60467,-0.129147,0,0,1.85747,-0.47911,0,0,6983,6,984000000,1.82906,0.45741,0.000948806,0.000845288,-0.605669,4.50852,1.57984,0.0819574,0.000724324,0.000583047,2.01152,6.48038,1.57793,-0.0725569,-0.00119142,-0.00094014,-7.49706,-2.68548,1.82161,-0.45122,-0.00117482,-0.000621023,-5.73522,0.718069,6983,6,984000000,0.00178449,4.23784e-06,0.000197805,0.999998,-0.000119606,-1.32827e-05,8.27429e-05,-8.73435e-05,0.0350088,9.80993,0,0,0,0,0,0,0,0,0,0,0,0,0,0,0,0,0,0,0,0,0,0,0,0,0,0,0,0,0,0,6,984000000,-0.0203005,-0.000637815,0.248153,0.00178449,4.23784e-06,0.000197805,0.999998,1,1,1,1,0,0,0,0,0,0,0,0,0,0,0,0,0,0,0,0,0,0,0,0,0,0,0,0,0,0,0,0,0,0,0,NaN,NaN
6.987,38,6,985000000,1.85747,0.47911,0,0,1.60467,0.129147,0,0,1.60467,-0.129147,0,0,1.85747,-0.47911,0,0,6984,6,985000000,1.82906,0.457411,0.000945539,0.000845517,-0.605749,4.50844,1.57984,0.081958,0.000724822,0.000584199,2.01145,6.48033,1.57793,-0.0725579,-0.00119647,-0.000941831,-7.49694,-2.6854,1.82161,-0.451221,-0.00118161,-0.000620442,-5.7351,0.718124,6984,6,985000000,0.00178443,4.23099e-06,0.000197846,0.999998,-0.000119598,-1.35355e-05,8.27383e-05,-8.81582e-05,0.0350083,9.80993,0,0,0,0,0,0,0,0,0,0,0,0,0,0,0,0,0,0,0,0,0,0,0,0,0,0,0,0,0,0,6,985999999,-0.0203005,-0.00063776,0.248153,0.00178437,4.22401e-06,0.000197888,0.999998,1,1,1,1,0,0,0,0,0,0,0,0,0,0,0,0,0,0,0,0,0,0,0,0,0,0,0,0,0,0,0,0,0,0,0,NaN,NaN
6.987,39,6,987000000,1.85747,0.47911,0,0,1.60467,0.129147,0,0,1.60467,-0.129147,0,0,1.85747,-0.47911,0,0,6985,6,985999999,1.82906,0.457412,0.000942148,0.000845784,-0.605828,4.50836,1.57984,0.0819587,0.000725336,0.000585355,2.01139,6.48027,1.57793,-0.072559,-0.0012012,-0.000943705,-7.49683,-2.68531,1.82161,-0.451222,-0.00118867,-0.000619815,-5.73498,0.718178,6985,6,985999999,0.00178437,4.22401e-06,0.000197888,0.999998,-0.000119592,-1.37894e-05,8.27336e-05,-8.89748e-05,0.0350077,9.80993,0,0,0,0,0,0,0,0,0,0,0,0,0,0,0,0,0,0,0,0,0,0,0,0,0,0,0,0,0,0,6,985999999,-0.0203005,-0.00063776,0.248153,0.00178437,4.22401e-06,0.000197888,0.999998,1,1,1,1,0,0,0,0,0,0,0,0,0,0,0,0,0,0,0,0,0,0,0,0,0,0,0,0,0,0,0,0,0,0,0,NaN,NaN
6.988,40,6,987000000,1.85747,0.47911,0,0,1.60467,0.129147,0,0,1.60467,-0.129147,0,0,1.85747,-0.47911,0,0,6986,6,987000000,1.82906,0.457413,0.000938639,0.000846085,-0.605906,4.50829,1.57984,0.0819593,0.000725865,0.000586513,2.01132,6.48022,1.57793,-0.0725601,-0.00120557,-0.000945766,-7.49671,-2.68522,1.82161,-0.451222,-0.00119597,-0.000619143,-5.73486,0.718233,6986,6,987000000,0.00178431,4.2169e-06,0.000197929,0.999998,-0.000119588,-1.4044e-05,8.27286e-05,-8.97911e-05,0.0350072,9.80993,0,0,0,0,0,0,0,0,0,0,0,0,0,0,0,0,0,0,0,0,0,0,0,0,0,0,0,0,0,0,6,987000000,-0.0203005,-0.000637732,0.248153,0.00178431,4.2169e-06,0.000197929,0.999998,1,1,1,1,0,0,0,0,0,0,0,0,0,0,0,0,0,0,0,0,0,0,0,0,0,0,0,0,0,0,0,0,0,0,0,NaN,NaN
6.99,41,6,988000000,1.85747,0.47911,0,0,1.60467,0.129147,0,0,1.60467,-0.129147,0,0,1.85747,-0.47911,0,0,6987,6,988000000,1.82906,0.457414,0.000935018,0.000846422,-0.605984,4.50821,1.57984,0.08196,0.000726409,0.000587674,2.01125,6.48016,1.57793,-0.0725612,-0.00120954,-0.000948017,-7.4966,-2.68513,1.82161,-0.451223,-0.00120348,-0.000618427,-5.73474,0.718287,6987,6,988000000,0.00178425,4.20967e-06,0.00019797,0.999998,-0.000119588,-1.42992e-05,8.27235e-05,-9.06046e-05,0.0350067,9.80993,0,0,0,0,0,0,0,0,0,0,0,0,0,0,0,0,0,0,0,0,0,0,0,0,0,0,0,0,0,0,6,988999999,-0.0203005,-0.000637677,0.248153,0.00178419,4.2023e-06,0.000198012,0.999998,1,1,1,1,0,0,0,0,0,0,0,0,0,0,0,0,0,0,0,0,0,0,0,0,0,0,0,0,0,0,0,0,0,0,0,NaN,NaN
6.99,42,6,990000000,1.85747,0.47911,0,0,1.60467,0.129147,0,0,1.60467,-0.129147,0,0,1.85747,-0.47911,0,0,6988,6,988999999,1.82906,0.457415,0.000931291,0.000846792,-0.606061,4.50813,1.57984,0.0819606,0.000726969,0.000588835,2.01119,6.48011,1.57793,-0.0725623,-0.00121308,-0.000950462,-7.49648,-2.68504,1.82161,-0.451224,-0.00121119,-0.000617668,-5.73462,0.718342,6988,6,988999999,0.00178419,4.2023e-06,0.000198012,0.999998,-0.000119591,-1.45547e-05,8.27181e-05,-9.1413e-05,0.0350063,9.80992,0,0,0,0,0,0,0,0,0,0,0,0,0,0,0,0,0,0,0,0,0,0,0,0,0,0,0,0,0,0,6,988999999,-0.0203005,-0.000637677,0.248153,0.00178419,4.2023e-06,0.000198012,0.999998,1,1,1,1,0,0,0,0,0,0,0,0,0,0,0,0,0,0,0,0,0,0,0,0,0,0,0,0,0,0,0,0,0,0,0,NaN,NaN
6.991,43,6,990000000,1.85747,0.47911,0,0,1.60467,0.129147,0,0,1.60467,-0.129147,0,0,1.85747,-0.47911,0,0,6989,6,990000000,1.82906,0.457416,0.000927466,0.000847194,-0.606138,4.50806,1.57984,0.0819613,0.000727546,0.000589998,2.01112,6.48005,1.57793,-0.0725633,-0.00121616,-0.000953105,-7.49637,-2.68495,1.82161,-0.451225,-0.00121907,-0.000616869,-5.7345,0.718396,6989,6,990000000,0.00178413,4.19481e-06,0.000198053,0.999998,-0.000119597,-1.48101e-05,8.27127e-05,-9.22138e-05,0.0350059,9.80992,0,0,0,0,0,0,0,0,0,0,0,0,0,0,0,0,0,0,0,0,0,0,0,0,0,0,0,0,0,0,6,990000000,-0.0203005,-0.00063765,0.248153,0.00178413,4.19481e-06,0.000198053,0.999998,1,1,1,1,0,0,0,0,0,0,0,0,0,0,0,0,0,0,0,0,0,0,0,0,0,0,0,0,0,0,0,0,0,0,0,NaN,NaN
6.992,44,6,991000000,1.85747,0.47911,0,0,1.60467,0.129147,0,0,1.60467,-0.129147,0,0,1.85747,-0.47911,0,0,6990,6,991000000,1.82906,0.457417,0.000923547,0.000847628,-0.606214,4.50798,1.57984,0.081962,0.000728139,0.000591162,2.01106,6.48,1.57793,-0.0725644,-0.00121873,-0.000955947,-7.49625,-2.68486,1.82161,-0.451226,-0.00122709,-0.000616029,-5.73437,0.71845,6990,6,991000000,0.00178407,4.1872e-06,0.000198094,0.999998,-0.000119606,-1.50652e-05,8.2707e-05,-9.30042e-05,0.0350055,9.80992,0,0,0,0,0,0,0,0,0,0,0,0,0,0,0,0,0,0,0,0,0,0,0,0,0,0,0,0,0,0,6,991000000,-0.0203005,-0.000637622,0.248153,0.00178407,4.1872e-06,0.000198094,0.999998,1,1,1,1,0,0,0,0,0,0,0,0,0,0,0,0,0,0,0,0,0,0,0,0,0,0,0,0,0,0,0,0,0,0,0,NaN,NaN
6.993,45,6,992000000,1.85747,0.47911,0,0,1.60467,0.129147,0,0,1.60467,-0.129147,0,0,1.85747,-0.47911,0,0,6991,6,992000000,1.82906,0.457417,0.000919541,0.000848092,-0.60629,4.5079,1.57984,0.0819626,0.000728748,0.000592326,2.01099,6.47994,1.57793,-0.0725655,-0.00122077,-0.000958991,-7.49614,-2.68477,1.82161,-0.451227,-0.00123524,-0.000615151,-5.73425,0.718503,6991,6,992000000,0.00178401,4.17945e-06,0.000198136,0.999998,-0.000119618,-1.53196e-05,8.27012e-05,-9.37816e-05,0.0350051,9.80992,0,0,0,0,0,0,0,0,0,0,0,0,0,0,0,0,0,0,0,0,0,0,0,0,0,0,0,0,0,0,6,992000000,-0.0203005,-0.000637595,0.248153,0.00178401,4.17945e-06,0.000198136,0.999998,1,1,1,1,0,0,0,0,0,0,0,0,0,0,0,0,0,0,0,0,0,0,0,0,0,0,0,0,0,0,0,0,0,0,0,NaN,NaN
6.995,46,6,993000000,1.85747,0.47911,0,0,1.60467,0.129147,0,0,1.60467,-0.129147,0,0,1.85747,-0.47911,0,0,6992,6,993000000,1.82906,0.457418,0.000915453,0.000848585,-0.606365,4.50783,1.57984,0.0819633,0.000729373,0.00059349,2.01092,6.47988,1.57793,-0.0725666,-0.00122225,-0.000962239,-7.49603,-2.68467,1.82161,-0.451228,-0.00124348,-0.000614236,-5.73412,0.718557,6992,6,993000000,0.00178395,4.17158e-06,0.000198177,0.999998,-0.000119634,-1.5573e-05,8.26952e-05,-9.45433e-05,0.0350047,9.80992,0,0,0,0,0,0,0,0,0,0,0,0,0,0,0,0,0,0,0,0,0,0,0,0,0,0,0,0,0,0,6,993999999,-0.0203006,-0.000637539,0.248153,0.00178389,4.16358e-06,0.000198218,0.999998,1,1,1,1,0,0,0,0,0,0,0,0,0,0,0,0,0,0,0,0,0,0,0,0,0,0,0,0,0,0,0,0,0,0,0,NaN,NaN
6.995,47,6,995000000,1.85747,0.47911,0,0,1.60467,0.129147,0,0,1.60467,-0.129147,0,0,1.85747,-0.47911,0,0,6993,6,993999999,1.82906,0.457419,0.000911289,0.000849106,-0.60644,4.50775,1.57984,0.0819639,0.000730015,0.000594655,2.01086,6.47983,1.57793,-0.0725677,-0.00122314,-0.00096569,-7.49591,-2.68458,1.82161,-0.451229,-0.00125181,-0.000613285,-5.73399,0.718611,6993,6,993999999,0.00178389,4.16358e-06,0.000198218,0.999998,-0.000119653,-1.5825e-05,8.26891e-05,-9.52866e-05,0.0350044,9.80992,0,0,0,0,0,0,0,0,0,0,0,0,0,0,0,0,0,0,0,0,0,0,0,0,0,0,0,0,0,0,6,993999999,-0.0203006,-0.000637539,0.248153,0.00178389,4.16358e-06,0.000198218,0.999998,1,1,1,1,0,0,0,0,0,0,0,0,0,0,0,0,0,0,0,0,0,0,0,0,0,0,0,0,0,0,0,0,0,0,0,NaN,NaN
6.996,48,6,995000000,1.85747,0.47911,0,0,1.60467,0.129147,0,0,1.60467,-0.129147,0,0,1.85747,-0.47911,0,0,6994,6,995000000,1.82906,0.45742,0.000907054,0.000849654,-0.606514,4.50767,1.57984,0.0819646,0.000730674,0.000595818,2.01079,6.47977,1.57793,-0.0725688,-0.00122341,-0.000969347,-7.4958,-2.68449,1.82161,-0.45123,-0.00126018,-0.0006123,-5.73386,0.718664,6994,6,995000000,0.00178383,4.15546e-06,0.00019826,0.999998,-0.000119676,-1.60753e-05,8.26828e-05,-9.60087e-05,0.0350041,9.80992,0,0,0,0,0,0,0,0,0,0,0,0,0,0,0,0,0,0,0,0,0,0,0,0,0,0,0,0,0,0,6,995000000,-0.0203006,-0.000637512,0.248153,0.00178383,4.15546e-06,0.00019826,0.999998,1,1,1,1,0,0,0,0,0,0,0,0,0,0,0,0,0,0,0,0,0,0,0,0,0,0,0,0,0,0,0,0,0,0,0,NaN,NaN
6.998,49,6,996000000,1.85747,0.47911,0,0,1.60467,0.129147,0,0,1.60467,-0.129147,0,0,1.85747,-0.47911,0,0,6995,6,996000000,1.82906,0.457421,0.000902755,0.000850228,-0.606588,4.50759,1.57984,0.0819653,0.000731349,0.000596981,2.01072,6.47972,1.57793,-0.0725699,-0.00122304,-0.000973208,-7.49569,-2.68439,1.82161,-0.451231,-0.00126858,-0.000611282,-5.73374,0.718717,6995,6,996000000,0.00178377,4.14721e-06,0.000198301,0.999998,-0.000119703,-1.63236e-05,8.26764e-05,-9.67068e-05,0.0350038,9.80992,0,0,0,0,0,0,0,0,0,0,0,0,0,0,0,0,0,0,0,0,0,0,0,0,0,0,0,0,0,0,6,996999999,-0.0203006,-0.000637457,0.248153,0.00178371,4.13884e-06,0.000198342,0.999998,1,1,1,1,0,0,0,0,0,0,0,0,0,0,0,0,0,0,0,0,0,0,0,0,0,0,0,0,0,0,0,0,0,0,0,NaN,NaN
6.998,50,6,998000000,1.85747,0.47911,0,0,1.60467,0.129147,0,0,1.60467,-0.129147,0,0,1.85747,-0.47911,0,0,6996,6,996999999,1.82906,0.457422,0.000898396,0.000850826,-0.606661,4.50752,1.57984,0.0819659,0.000732042,0.000598144,2.01065,6.47966,1.57793,-0.072571,-0.00122201,-0.000977273,-7.49559,-2.6843,1.82161,-0.451232,-0.00127699,-0.000610231,-5.73361,0.71877,6996,6,996999999,0.00178371,4.13884e-06,0.000198342,0.999998,-0.000119734,-1.65694e-05,8.26699e-05,-9.7378e-05,0.0350036,9.80992,0,0,0,0,0,0,0,0,0,0,0,0,0,0,0,0,0,0,0,0,0,0,0,0,0,0,0,0,0,0,6,996999999,-0.0203006,-0.000637457,0.248153,0.00178371,4.13884e-06,0.000198342,0.999998,1,1,1,1,0,0,0,0,0,0,0,0,0,0,0,0,0,0,0,0,0,0,0,0,0,0,0,0,0,0,0,0,0,0,0,NaN,NaN
6.999,51,6,998000000,1.85747,0.47911,0,0,1.60467,0.129147,0,0,1.60467,-0.129147,0,0,1.85747,-0.47911,0,0,6997,6,998000000,1.82906,0.457423,0.000893983,0.000851447,-0.606734,4.50744,1.57984,0.0819666,0.000732751,0.000599305,2.01059,6.47961,1.57793,-0.0725721,-0.0012203,-0.000981541,-7.49548,-2.6842,1.82162,-0.451233,-0.00128537,-0.000609151,-5.73348,0.718823,6997,6,998000000,0.00178365,4.13035e-06,0.000198384,0.999998,-0.000119769,-1.68123e-05,8.26633e-05,-9.80197e-05,0.0350034,9.80992,0,0,0,0,0,0,0,0,0,0,0,0,0,0,0,0,0,0,0,0,0,0,0,0,0,0,0,0,0,0,6,998000000,-0.0203006,-0.000637429,0.248153,0.00178365,4.13035e-06,0.000198384,0.999998,1,1,1,1,0,0,0,0,0,0,0,0,0,0,0,0,0,0,0,0,0,0,0,0,0,0,0,0,0,0,0,0,0,0,0,NaN,NaN
7,52,6,999000000,1.85747,0.47911,0,0,1.60467,0.129147,0,0,1.60467,-0.129147,0,0,1.85747,-0.47911,0,0,6998,6,999000000,1.82906,0.457424,0.00088952,0.000852091,-0.606806,4.50736,1.57984,0.0819673,0.000733476,0.000600466,2.01052,6.47955,1.57793,-0.0725732,-0.00121788,-0.000986009,-7.49537,-2.68411,1.82162,-0.451234,-0.00129371,-0.000608041,-5.73334,0.718876,6998,6,999000000,0.00178359,4.12174e-06,0.000198425,0.999998,-0.000119808,-1.7052e-05,8.26566e-05,-9.86292e-05,0.0350032,9.80992,0,0,0,0,0,0,0,0,0,0,0,0,0,0,0,0,0,0,0,0,0,0,0,0,0,0,0,0,0,0,6,999000000,-0.0203006,-0.000637402,0.248153,0.00178359,4.12174e-06,0.000198425,0.999998,1,1,1,1,0,0,0,0,0,0,0,0,0,0,0,0,0,0,0,0,0,0,0,0,0,0,0,0,0,0,0,0,0,0,0,NaN,NaN
7.001,53,7,0,1.85747,0.47911,0,0,1.60467,0.129147,0,0,1.60467,-0.129147,0,0,1.85747,-0.47911,0,0,6999,7,0,1.82906,0.457424,0.000885013,0.000852755,-0.606878,4.50728,1.57984,0.0819679,0.000734219,0.000601625,2.01045,6.47949,1.57793,-0.0725743,-0.00121475,-0.000990676,-7.49527,-2.68401,1.82162,-0.451235,-0.00130199,-0.000606904,-5.73321,0.718929,6999,7,0,0.00178353,4.11301e-06,0.000198466,0.999998,-0.000119851,-1.72881e-05,8.26498e-05,-9.92037e-05,0.035003,9.80992,0,0,0,0,0,0,0,0,0,0,0,0,0,0,0,0,0,0,0,0,0,0,0,0,0,0,0,0,0,0,7,0,-0.0203006,-0.000637374,0.248153,0.00178353,4.11301e-06,0.000198466,0.999998,1,1,1,1,0,0,0,0,0,0,0,0,0,0,0,0,0,0,0,0,0,0,0,0,0,0,0,0,0,0,0,0,0,0,0,NaN,NaN
7.003,54,7,1000000,1.85747,0.47911,0,0,1.60467,0.129147,0,0,1.60467,-0.129147,0,0,1.85747,-0.47911,0,0,7000,7,1000000,1.82906,0.457425,0.000880465,0.000853438,-0.606949,4.5072,1.57984,0.0819686,0.000734978,0.000602783,2.01038,6.47944,1.57794,-0.0725754,-0.0012109,-0.000995538,-7.49517,-2.68391,1.82162,-0.451236,-0.00131018,-0.00060574,-5.73308,0.718981,7000,7,1000000,0.00178347,4.10416e-06,0.000198508,0.999998,-0.000119898,-1.75201e-05,8.26429e-05,-9.97407e-05,0.0350029,9.80992,0,0,0,0,0,0,0,0,0,0,0,0,0,0,0,0,0,0,0,0,0,0,0,0,0,0,0,0,0,0,7,1999999,-0.0203006,-0.000637319,0.248153,0.00178341,4.0952e-06,0.000198549,0.999998,1,1,1,1,0,0,0,0,0,0,0,0,0,0,0,0,0,0,0,0,0,0,0,0,0,0,0,0,0,0,0,0,0,0,0,NaN,NaN
7.003,55,7,3000000,1.85747,0.47911,0,0,1.60467,0.129147,0,0,1.60467,-0.129147,0,0,1.85747,-0.47911,0,0,7001,7,1999999,1.82906,0.457426,0.000875883,0.00085414,-0.60702,4.50713,1.57984,0.0819693,0.000735753,0.00060394,2.01032,6.47938,1.57794,-0.0725765,-0.00120631,-0.00100059,-7.49507,-2.68381,1.82162,-0.451237,-0.00131825,-0.00060455,-5.73295,0.719034,7001,7,1999999,0.00178341,4.0952e-06,0.000198549,0.999998,-0.00011995,-1.77476e-05,8.2636e-05,-0.000100238,0.0350027,9.80992,0,0,0,0,0,0,0,0,0,0,0,0,0,0,0,0,0,0,0,0,0,0,0,0,0,0,0,0,0,0,7,1999999,-0.0203006,-0.000637319,0.248153,0.00178341,4.0952e-06,0.000198549,0.999998,1,1,1,1,0,0,0,0,0,0,0,0,0,0,0,0,0,0,0,0,0,0,0,0,0,0,0,0,0,0,0,0,0,0,0,NaN,NaN
7.004,56,7,3000000,1.85747,0.47911,0,0,1.60467,0.129147,0,0,1.60467,-0.129147,0,0,1.85747,-0.47911,0,0,7002,7,3000000,1.82906,0.457427,0.00087127,0.000854858,-0.60709,4.50705,1.57984,0.0819699,0.000736545,0.000605095,2.01025,6.47932,1.57794,-0.0725776,-0.00120098,-0.00100583,-7.49497,-2.68371,1.82162,-0.451237,-0.00132619,-0.000603337,-5.73282,0.719086,7002,7,3000000,0.00178335,4.08613e-06,0.00019859,0.999998,-0.000120006,-1.79702e-05,8.2629e-05,-0.000100693,0.0350026,9.80992,0,0,0,0,0,0,0,0,0,0,0,0,0,0,0,0,0,0,0,0,0,0,0,0,0,0,0,0,0,0,7,3000000,-0.0203006,-0.000637291,0.248153,0.00178335,4.08613e-06,0.00019859,0.999998,1,1,1,1,0,0,0,0,0,0,0,0,0,0,0,0,0,0,0,0,0,0,0,0,0,0,0,0,0,0,0,0,0,0,0,NaN,NaN
7.006,57,7,4000000,1.85747,0.47911,0,0,1.60467,0.129147,0,0,1.60467,-0.129147,0,0,1.85747,-0.47911,0,0,7003,7,4000000,1.82906,0.457428,0.00086663,0.000855593,-0.60716,4.50697,1.57984,0.0819706,0.000737354,0.000606248,2.01018,6.47927,1.57794,-0.0725787,-0.00119491,-0.00101125,-7.49487,-2.68361,1.82162,-0.451238,-0.00133397,-0.000602101,-5.73268,0.719138,7003,7,4000000,0.00178329,4.07695e-06,0.000198632,0.999998,-0.000120066,-1.81875e-05,8.26219e-05,-0.000101103,0.0350026,9.80992,0,0,0,0,0,0,0,0,0,0,0,0,0,0,0,0,0,0,0,0,0,0,0,0,0,0,0,0,0,0,7,4999999,-0.0203006,-0.000637236,0.248152,0.00178323,4.06767e-06,0.000198673,0.999998,1,1,1,1,0,0,0,0,0,0,0,0,0,0,0,0,0,0,0,0,0,0,0,0,0,0,0,0,0,0,0,0,0,0,0,NaN,NaN
7.006,58,7,6000000,1.85747,0.47911,0,0,1.60467,0.129147,0,0,1.60467,-0.129147,0,0,1.85747,-0.47911,0,0,7004,7,4999999,1.82906,0.457429,0.000861968,0.000856342,-0.60723,4.50689,1.57984,0.0819713,0.000738179,0.0006074,2.01011,6.47921,1.57794,-0.0725798,-0.00118809,-0.00101685,-7.49478,-2.68351,1.82162,-0.451239,-0.00134157,-0.000600843,-5.73255,0.71919,7004,7,4999999,0.00178323,4.06767e-06,0.000198673,0.999998,-0.000120132,-1.8399e-05,8.26149e-05,-0.000101466,0.0350025,9.80992,0,0,0,0,0,0,0,0,0,0,0,0,0,0,0,0,0,0,0,0,0,0,0,0,0,0,0,0,0,0,7,6000000,-0.0203006,-0.000637208,0.248152,0.00178317,4.05828e-06,0.000198714,0.999998,1,1,1,1,0,0,0,0,0,0,0,0,0,0,0,0,0,0,0,0,0,0,0,0,0,0,0,0,0,0,0,0,0,0,0,NaN,NaN
7.007,59,7,6000000,1.85747,0.47911,0,0,1.60467,0.129147,0,0,1.60467,-0.129147,0,0,1.85747,-0.47911,0,0,7005,7,6000000,1.82906,0.45743,0.000857288,0.000857104,-0.607299,4.50681,1.57984,0.081972,0.00073902,0.00060855,2.01005,6.47915,1.57794,-0.0725809,-0.00118055,-0.00102262,-7.49468,-2.68341,1.82162,-0.45124,-0.00134896,-0.000599565,-5.73241,0.719241,7005,7,6000000,0.00178317,4.05828e-06,0.000198714,0.999998,-0.000120202,-1.86044e-05,8.26078e-05,-0.000101781,0.0350024,9.80992,0,0,0,0,0,0,0,0,0,0,0,0,0,0,0,0,0,0,0,0,0,0,0,0,0,0,0,0,0,0,7,6000000,-0.0203006,-0.000637208,0.248152,0.00178317,4.05828e-06,0.000198714,0.999998,1,1,1,1,0,0,0,0,0,0,0,0,0,0,0,0,0,0,0,0,0,0,0,0,0,0,0,0,0,0,0,0,0,0,0,NaN,NaN
7.008,60,7,7000000,1.85747,0.47911,0,0,1.60467,0.129147,0,0,1.60467,-0.129147,0,0,1.85747,-0.47911,0,0,7006,7,7000000,1.82906,0.457431,0.000852594,0.000857878,-0.607367,4.50673,1.57984,0.0819726,0.000739877,0.000609698,2.00998,6.4791,1.57794,-0.072582,-0.00117227,-0.00102855,-7.49459,-2.6833,1.82162,-0.451241,-0.00135614,-0.000598267,-5.73228,0.719293,7006,7,7000000,0.00178311,4.04879e-06,0.000198755,0.999998,-0.000120276,-1.88033e-05,8.26007e-05,-0.000102046,0.0350024,9.80992,0,0,0,0,0,0,0,0,0,0,0,0,0,0,0,0,0,0,0,0,0,0,0,0,0,0,0,0,0,0,7,7000000,-0.0203006,-0.00063718,0.248152,0.00178311,4.04879e-06,0.000198755,0.999998,1,1,1,1,0,0,0,0,0,0,0,0,0,0,0,0,0,0,0,0,0,0,0,0,0,0,0,0,0,0,0,0,0,0,0,NaN,NaN
7.009,61,7,8000000,1.85747,0.47911,0,0,1.60467,0.129147,0,0,1.60467,-0.129147,0,0,1.85747,-0.47911,0,0,7007,7,8000000,1.82906,0.457431,0.000847889,0.000858664,-0.607435,4.50666,1.57984,0.0819733,0.000740749,0.000610844,2.00991,6.47904,1.57794,-0.0725831,-0.00116328,-0.00103463,-7.4945,-2.6832,1.82162,-0.451242,-0.00136307,-0.000596952,-5.73214,0.719344,7007,7,8000000,0.00178305,4.03921e-06,0.000198797,0.999998,-0.000120356,-1.89951e-05,8.25936e-05,-0.000102259,0.0350024,9.80992,0,0,0,0,0,0,0,0,0,0,0,0,0,0,0,0,0,0,0,0,0,0,0,0,0,0,0,0,0,0,7,8000000,-0.0203006,-0.000637153,0.248152,0.00178305,4.03921e-06,0.000198797,0.999998,1,1,1,1,0,0,0,0,0,0,0,0,0,0,0,0,0,0,0,0,0,0,0,0,0,0,0,0,0,0,0,0,0,0,0,NaN,NaN
7.011,62,7,9000000,1.85747,0.47911,0,0,1.60467,0.129147,0,0,1.60467,-0.129147,0,0,1.85747,-0.47911,0,0,7008,7,9000000,1.82906,0.457432,0.000843178,0.000859459,-0.607503,4.50658,1.57984,0.081974,0.000741638,0.000611988,2.00984,6.47898,1.57794,-0.0725842,-0.00115359,-0.00104086,-7.49442,-2.6831,1.82162,-0.451243,-0.00136973,-0.00059562,-5.73201,0.719396,7008,7,9000000,0.00178299,4.02953e-06,0.000198838,0.999998,-0.00012044,-1.91795e-05,8.25866e-05,-0.00010242,0.0350023,9.80992,0,0,0,0,0,0,0,0,0,0,0,0,0,0,0,0,0,0,0,0,0,0,0,0,0,0,0,0,0,0,7,9999999,-0.0203006,-0.000637097,0.248152,0.00178293,4.01977e-06,0.000198879,0.999998,1,1,1,1,0,0,0,0,0,0,0,0,0,0,0,0,0,0,0,0,0,0,0,0,0,0,0,0,0,0,0,0,0,0,0,NaN,NaN
7.011,63,7,11000000,1.85747,0.47911,0,0,1.60467,0.129147,0,0,1.60467,-0.129147,0,0,1.85747,-0.47911,0,0,7009,7,9999999,1.82906,0.457433,0.000838463,0.000860263,-0.60757,4.5065,1.57984,0.0819747,0.000742542,0.00061313,2.00977,6.47893,1.57794,-0.0725853,-0.00114323,-0.00104723,-7.49433,-2.68299,1.82162,-0.451244,-0.00137612,-0.000594273,-5.73187,0.719447,7009,7,9999999,0.00178293,4.01977e-06,0.000198879,0.999998,-0.000120529,-1.93561e-05,8.25796e-05,-0.000102525,0.0350023,9.80992,0,0,0,0,0,0,0,0,0,0,0,0,0,0,0,0,0,0,0,0,0,0,0,0,0,0,0,0,0,0,7,9999999,-0.0203006,-0.000637097,0.248152,0.00178293,4.01977e-06,0.000198879,0.999998,1,1,1,1,0,0,0,0,0,0,0,0,0,0,0,0,0,0,0,0,0,0,0,0,0,0,0,0,0,0,0,0,0,0,0,NaN,NaN
7.012,64,7,11000000,1.85747,0.47911,0,0,1.60467,0.129147,0,0,1.60467,-0.129147,0,0,1.85747,-0.47911,0,0,7010,7,11000000,1.82906,0.457434,0.000833749,0.000861074,-0.607637,4.50642,1.57984,0.0819753,0.00074346,0.000614269,2.0097,6.47887,1.57794,-0.0725864,-0.00113221,-0.00105373,-7.49425,-2.68288,1.82162,-0.451245,-0.0013822,-0.000592911,-5.73174,0.719498,7010,7,11000000,0.00178287,4.00992e-06,0.000198921,0.999998,-0.000120623,-1.95246e-05,8.25726e-05,-0.000102577,0.0350023,9.80992,0,0,0,0,0,0,0,0,0,0,0,0,0,0,0,0,0,0,0,0,0,0,0,0,0,0,0,0,0,0,7,11000000,-0.0203006,-0.000637069,0.248152,0.00178287,4.00992e-06,0.000198921,0.999998,1,1,1,1,0,0,0,0,0,0,0,0,0,0,0,0,0,0,0,0,0,0,0,0,0,0,0,0,0,0,0,0,0,0,0,NaN,NaN
7.014,65,7,12000000,1.85747,0.47911,0,0,1.60467,0.129147,0,0,1.60467,-0.129147,0,0,1.85747,-0.47911,0,0,7011,7,12000000,1.82906,0.457435,0.000829037,0.000861891,-0.607703,4.50634,1.57984,0.081976,0.000744394,0.000615405,2.00964,6.47881,1.57794,-0.0725875,-0.00112056,-0.00106035,-7.49417,-2.68278,1.82162,-0.451246,-0.00138796,-0.000591536,-5.7316,0.719549,7011,7,12000000,0.00178281,3.99999e-06,0.000198962,0.999998,-0.000120722,-1.96844e-05,8.25657e-05,-0.000102572,0.0350023,9.80992,0,0,0,0,0,0,0,0,0,0,0,0,0,0,0,0,0,0,0,0,0,0,0,0,0,0,0,0,0,0,7,12999999,-0.0203006,-0.000637014,0.248152,0.00178275,3.98999e-06,0.000199003,0.999998,1,1,1,1,0,0,0,0,0,0,0,0,0,0,0,0,0,0,0,0,0,0,0,0,0,0,0,0,0,0,0,0,0,0,0,NaN,NaN
7.014,66,7,14000000,1.85747,0.47911,0,0,1.60467,0.129147,0,0,1.60467,-0.129147,0,0,1.85747,-0.47911,0,0,7012,7,12999999,1.82906,0.457436,0.000824333,0.000862715,-0.607769,4.50626,1.57984,0.0819767,0.000745343,0.000616539,2.00957,6.47875,1.57794,-0.0725886,-0.00110832,-0.00106708,-7.49409,-2.68267,1.82162,-0.451247,-0.00139339,-0.000590149,-5.73147,0.719599,7012,7,12999999,0.00178275,3.98999e-06,0.000199003,0.999998,-0.000120825,-1.98353e-05,8.25589e-05,-0.000102512,0.0350023,9.80992,0,0,0,0,0,0,0,0,0,0,0,0,0,0,0,0,0,0,0,0,0,0,0,0,0,0,0,0,0,0,7,12999999,-0.0203006,-0.000637014,0.248152,0.00178275,3.98999e-06,0.000199003,0.999998,1,1,1,1,0,0,0,0,0,0,0,0,0,0,0,0,0,0,0,0,0,0,0,0,0,0,0,0,0,0,0,0,0,0,0,NaN,NaN
7.015,67,7,14000000,1.85747,0.47911,0,0,1.60467,0.129147,0,0,1.60467,-0.129147,0,0,1.85747,-0.47911,0,0,7013,7,14000000,1.82906,0.457436,0.000819637,0.000863542,-0.607835,4.50618,1.57984,0.0819774,0.000746305,0.000617669,2.0095,6.4787,1.57794,-0.0725897,-0.00109551,-0.0010739,-7.49401,-2.68256,1.82162,-0.451248,-0.00139846,-0.000588752,-5.73133,0.71965,7013,7,14000000,0.00178269,3.97992e-06,0.000199044,0.999998,-0.000120934,-1.99769e-05,8.25521e-05,-0.000102396,0.0350023,9.80992,0,0,0,0,0,0,0,0,0,0,0,0,0,0,0,0,0,0,0,0,0,0,0,0,0,0,0,0,0,0,7,14000000,-0.0203006,-0.000636986,0.248152,0.00178269,3.97992e-06,0.000199044,0.999998,1,1,1,1,0,0,0,0,0,0,0,0,0,0,0,0,0,0,0,0,0,0,0,0,0,0,0,0,0,0,0,0,0,0,0,NaN,NaN
7.016,68,7,15000000,1.85747,0.47911,0,0,1.60467,0.129147,0,0,1.60467,-0.129147,0,0,1.85747,-0.47911,0,0,7014,7,15000000,1.82906,0.457437,0.000814954,0.000864373,-0.6079,4.5061,1.57984,0.0819781,0.000747282,0.000618796,2.00943,6.47864,1.57794,-0.0725908,-0.00108219,-0.00108081,-7.49394,-2.68245,1.82162,-0.451249,-0.00140316,-0.000587345,-5.7312,0.7197,7014,7,15000000,0.00178263,3.96978e-06,0.000199086,0.999998,-0.000121047,-2.01088e-05,8.25455e-05,-0.000102224,0.0350023,9.80992,0,0,0,0,0,0,0,0,0,0,0,0,0,0,0,0,0,0,0,0,0,0,0,0,0,0,0,0,0,0,7,15000000,-0.0203006,-0.000636958,0.248152,0.00178263,3.96978e-06,0.000199086,0.999998,1,1,1,1,0,0,0,0,0,0,0,0,0,0,0,0,0,0,0,0,0,0,0,0,0,0,0,0,0,0,0,0,0,0,0,NaN,NaN
7.017,69,7,16000000,1.85747,0.47911,0,0,1.60467,0.129147,0,0,1.60467,-0.129147,0,0,1.85747,-0.47911,0,0,7015,7,16000000,1.82906,0.457438,0.000810286,0.000865206,-0.607965,4.50602,1.57984,0.0819788,0.000748273,0.00061992,2.00936,6.47858,1.57794,-0.0725918,-0.00106839,-0.0010878,-7.49387,-2.68234,1.82162,-0.45125,-0.00140748,-0.00058593,-5.73107,0.71975,7015,7,16000000,0.00178257,3.95957e-06,0.000199127,0.999998,-0.000121165,-2.02307e-05,8.25389e-05,-0.000101997,0.0350022,9.80992,0,0,0,0,0,0,0,0,0,0,0,0,0,0,0,0,0,0,0,0,0,0,0,0,0,0,0,0,0,0,7,16000000,-0.0203006,-0.00063693,0.248152,0.00178257,3.95957e-06,0.000199127,0.999998,1,1,1,1,0,0,0,0,0,0,0,0,0,0,0,0,0,0,0,0,0,0,0,0,0,0,0,0,0,0,0,0,0,0,0,NaN,NaN
7.019,70,7,17000000,1.85747,0.47911,0,0,1.60467,0.129147,0,0,1.60467,-0.129147,0,0,1.85747,-0.47911,0,0,7016,7,17000000,1.82906,0.457439,0.000805635,0.00086604,-0.608029,4.50594,1.57984,0.0819794,0.000749276,0.000621039,2.00929,6.47852,1.57794,-0.0725929,-0.00105415,-0.00109485,-7.4938,-2.68223,1.82162,-0.451251,-0.0014114,-0.000584508,-5.73093,0.719801,7016,7,17000000,0.00178251,3.94932e-06,0.000199168,0.999998,-0.000121288,-2.03424e-05,8.25325e-05,-0.000101715,0.0350022,9.80992,0,0,0,0,0,0,0,0,0,0,0,0,0,0,0,0,0,0,0,0,0,0,0,0,0,0,0,0,0,0,7,17999999,-0.0203006,-0.000636874,0.248152,0.00178245,3.93901e-06,0.000199209,0.999998,1,1,1,1,0,0,0,0,0,0,0,0,0,0,0,0,0,0,0,0,0,0,0,0,0,0,0,0,0,0,0,0,0,0,0,NaN,NaN
7.019,71,7,19000000,1.85747,0.47911,0,0,1.60467,0.129147,0,0,1.60467,-0.129147,0,0,1.85747,-0.47911,0,0,7017,7,17999999,1.82906,0.45744,0.000801004,0.000866875,-0.608093,4.50586,1.57984,0.0819801,0.000750293,0.000622154,2.00922,6.47847,1.57794,-0.072594,-0.00103953,-0.00110195,-7.49373,-2.68212,1.82162,-0.451252,-0.00141492,-0.000583081,-5.7308,0.719851,7017,7,17999999,0.00178245,3.93901e-06,0.000199209,0.999998,-0.000121415,-2.04435e-05,8.25262e-05,-0.00010138,0.0350022,9.80993,0,0,0,0,0,0,0,0,0,0,0,0,0,0,0,0,0,0,0,0,0,0,0,0,0,0,0,0,0,0,7,17999999,-0.0203006,-0.000636874,0.248152,0.00178245,3.93901e-06,0.000199209,0.999998,1,1,1,1,0,0,0,0,0,0,0,0,0,0,0,0,0,0,0,0,0,0,0,0,0,0,0,0,0,0,0,0,0,0,0,NaN,NaN
7.02,72,7,19000000,1.85747,0.47911,0,0,1.60467,0.129147,0,0,1.60467,-0.129147,0,0,1.85747,-0.47911,0,0,7018,7,19000000,1.82906,0.457441,0.000796396,0.00086771,-0.608156,4.50578,1.57984,0.0819808,0.000751322,0.000623264,2.00915,6.47841,1.57794,-0.072595,-0.00102458,-0.00110909,-7.49366,-2.68201,1.82162,-0.451253,-0.00141802,-0.000581649,-5.73066,0.7199,7018,7,19000000,0.00178239,3.92866e-06,0.000199251,0.999998,-0.000121547,-2.05338e-05,8.252e-05,-0.000100992,0.0350021,9.80993,0,0,0,0,0,0,0,0,0,0,0,0,0,0,0,0,0,0,0,0,0,0,0,0,0,0,0,0,0,0,7,19000000,-0.0203006,-0.000636846,0.248152,0.00178239,3.92866e-06,0.000199251,0.999998,1,1,1,1,0,0,0,0,0,0,0,0,0,0,0,0,0,0,0,0,0,0,0,0,0,0,0,0,0,0,0,0,0,0,0,NaN,NaN
7.022,73,7,20000000,1.85747,0.47911,0,0,1.60467,0.129147,0,0,1.60467,-0.129147,0,0,1.85747,-0.47911,0,0,7019,7,20000000,1.82906,0.457441,0.000791812,0.000868544,-0.60822,4.5057,1.57984,0.0819815,0.000752363,0.000624369,2.00908,6.47835,1.57794,-0.0725961,-0.00100934,-0.00111625,-7.4936,-2.68189,1.82162,-0.451254,-0.00142069,-0.000580214,-5.73053,0.71995,7019,7,20000000,0.00178233,3.91827e-06,0.000199292,0.999998,-0.000121684,-2.0613e-05,8.2514e-05,-0.000100554,0.035002,9.80993,0,0,0,0,0,0,0,0,0,0,0,0,0,0,0,0,0,0,0,0,0,0,0,0,0,0,0,0,0,0,7,20999999,-0.0203007,-0.00063679,0.248152,0.00178227,3.90784e-06,0.000199333,0.999998,1,1,1,1,0,0,0,0,0,0,0,0,0,0,0,0,0,0,0,0,0,0,0,0,0,0,0,0,0,0,0,0,0,0,0,NaN,NaN
7.022,74,7,22000000,1.85747,0.47911,0,0,1.60467,0.129147,0,0,1.60467,-0.129147,0,0,1.85747,-0.47911,0,0,7020,7,20999999,1.82906,0.457442,0.000787255,0.000869376,-0.608283,4.50563,1.57984,0.0819822,0.000753416,0.000625469,2.00901,6.47829,1.57794,-0.0725972,-0.00099388,-0.00112342,-7.49354,-2.68178,1.82162,-0.451255,-0.00142292,-0.000578778,-5.7304,0.72,7020,7,20999999,0.00178227,3.90784e-06,0.000199333,0.999998,-0.000121825,-2.06809e-05,8.25081e-05,-0.000100066,0.0350019,9.80993,0,0,0,0,0,0,0,0,0,0,0,0,0,0,0,0,0,0,0,0,0,0,0,0,0,0,0,0,0,0,7,20999999,-0.0203007,-0.00063679,0.248152,0.00178227,3.90784e-06,0.000199333,0.999998,1,1,1,1,0,0,0,0,0,0,0,0,0,0,0,0,0,0,0,0,0,0,0,0,0,0,0,0,0,0,0,0,0,0,0,NaN,NaN
7.023,75,7,22000000,1.85747,0.47911,0,0,1.60467,0.129147,0,0,1.60467,-0.129147,0,0,1.85747,-0.47911,0,0,7021,7,22000000,1.82906,0.457443,0.000782726,0.000870205,-0.608345,4.50555,1.57984,0.0819829,0.00075448,0.000626562,2.00894,6.47823,1.57794,-0.0725982,-0.000978252,-0.0011306,-7.49348,-2.68167,1.82162,-0.451256,-0.00142471,-0.000577341,-5.73027,0.720049,7021,7,22000000,0.0017822,3.89739e-06,0.000199374,0.999998,-0.00012197,-2.07374e-05,8.25024e-05,-9.95306e-05,0.0350017,9.80993,0,0,0,0,0,0,0,0,0,0,0,0,0,0,0,0,0,0,0,0,0,0,0,0,0,0,0,0,0,0,7,22000000,-0.0203007,-0.000636762,0.248152,0.0017822,3.89739e-06,0.000199374,0.999998,1,1,1,1,0,0,0,0,0,0,0,0,0,0,0,0,0,0,0,0,0,0,0,0,0,0,0,0,0,0,0,0,0,0,0,NaN,NaN
7.024,76,7,23000000,1.85747,0.47911,0,0,1.60467,0.129147,0,0,1.60467,-0.129147,0,0,1.85747,-0.47911,0,0,7022,7,23000000,1.82906,0.457444,0.000778229,0.000871031,-0.608407,4.50547,1.57984,0.0819836,0.000755554,0.000627649,2.00887,6.47817,1.57794,-0.0725993,-0.000962516,-0.00113775,-7.49342,-2.68155,1.82162,-0.451257,-0.00142606,-0.000575905,-5.73014,0.720098,7022,7,23000000,0.00178214,3.88691e-06,0.000199415,0.999998,-0.000122119,-2.07822e-05,8.24968e-05,-9.89502e-05,0.0350015,9.80993,0,0,0,0,0,0,0,0,0,0,0,0,0,0,0,0,0,0,0,0,0,0,0,0,0,0,0,0,0,0,7,23000000,-0.0203007,-0.000636734,0.248152,0.00178214,3.88691e-06,0.000199415,0.999998,1,1,1,1,0,0,0,0,0,0,0,0,0,0,0,0,0,0,0,0,0,0,0,0,0,0,0,0,0,0,0,0,0,0,0,NaN,NaN
7.025,77,7,24000000,1.85747,0.47911,0,0,1.60467,0.129147,0,0,1.60467,-0.129147,0,0,1.85747,-0.47911,0,0,7023,7,24000000,1.82906,0.457445,0.000773763,0.000871854,-0.608469,4.50539,1.57984,0.0819843,0.000756638,0.000628729,2.0088,6.47812,1.57794,-0.0726003,-0.000946733,-0.00114488,-7.49336,-2.68144,1.82163,-0.451258,-0.00142695,-0.000574472,-5.73001,0.720148,7023,7,24000000,0.00178208,3.87642e-06,0.000199457,0.999998,-0.000122273,-2.08153e-05,8.24914e-05,-9.83268e-05,0.0350013,9.80993,0,0,0,0,0,0,0,0,0,0,0,0,0,0,0,0,0,0,0,0,0,0,0,0,0,0,0,0,0,0,7,24000000,-0.0203007,-0.000636706,0.248152,0.00178208,3.87642e-06,0.000199457,0.999998,1,1,1,1,0,0,0,0,0,0,0,0,0,0,0,0,0,0,0,0,0,0,0,0,0,0,0,0,0,0,0,0,0,0,0,NaN,NaN
7.027,78,7,25000000,1.85747,0.47911,0,0,1.60467,0.129147,0,0,1.60467,-0.129147,0,0,1.85747,-0.47911,0,0,7024,7,25000000,1.82906,0.457446,0.000769332,0.000872672,-0.608531,4.50531,1.57984,0.081985,0.000757731,0.000629802,2.00873,6.47806,1.57794,-0.0726014,-0.000930964,-0.00115197,-7.4933,-2.68132,1.82163,-0.451259,-0.0014274,-0.000573042,-5.72988,0.720197,7024,7,25000000,0.00178202,3.86591e-06,0.000199498,0.999998,-0.00012243,-2.08366e-05,8.24862e-05,-9.76628e-05,0.0350011,9.80993,0,0,0,0,0,0,0,0,0,0,0,0,0,0,0,0,0,0,0,0,0,0,0,0,0,0,0,0,0,0,7,25999999,-0.0203007,-0.000636649,0.248152,0.00178196,3.8554e-06,0.000199539,0.999998,1,1,1,1,0,0,0,0,0,0,0,0,0,0,0,0,0,0,0,0,0,0,0,0,0,0,0,0,0,0,0,0,0,0,0,NaN,NaN
7.027,79,7,27000000,1.85747,0.47911,0,0,1.60467,0.129147,0,0,1.60467,-0.129147,0,0,1.85747,-0.47911,0,0,7025,7,25999999,1.82906,0.457446,0.000764936,0.000873485,-0.608592,4.50523,1.57984,0.0819857,0.000758833,0.000630867,2.00866,6.478,1.57794,-0.0726024,-0.000915271,-0.00115899,-7.49325,-2.6812,1.82163,-0.45126,-0.00142739,-0.000571618,-5.72975,0.720246,7025,7,25999999,0.00178196,3.8554e-06,0.000199539,0.999998,-0.000122591,-2.0846e-05,8.24812e-05,-9.69607e-05,0.0350008,9.80993,0,0,0,0,0,0,0,0,0,0,0,0,0,0,0,0,0,0,0,0,0,0,0,0,0,0,0,0,0,0,7,25999999,-0.0203007,-0.000636649,0.248152,0.00178196,3.8554e-06,0.000199539,0.999998,1,1,1,1,0,0,0,0,0,0,0,0,0,0,0,0,0,0,0,0,0,0,0,0,0,0,0,0,0,0,0,0,0,0,0,NaN,NaN
7.028,80,7,27000000,1.85747,0.47911,0,0,1.60467,0.129147,0,0,1.60467,-0.129147,0,0,1.85747,-0.47911,0,0,7026,7,27000000,1.82906,0.457447,0.000760577,0.000874293,-0.608653,4.50515,1.57984,0.0819864,0.000759942,0.000631923,2.00859,6.47794,1.57793,-0.0726034,-0.000899717,-0.00116595,-7.4932,-2.68109,1.82163,-0.451261,-0.00142693,-0.000570201,-5.72962,0.720294,7026,7,27000000,0.0017819,3.8449e-06,0.00019958,0.999998,-0.000122755,-2.08435e-05,8.24763e-05,-9.62232e-05,0.0350005,9.80994,0,0,0,0,0,0,0,0,0,0,0,0,0,0,0,0,0,0,0,0,0,0,0,0,0,0,0,0,0,0,7,27000000,-0.0203007,-0.000636621,0.248152,0.0017819,3.8449e-06,0.00019958,0.999998,1,1,1,1,0,0,0,0,0,0,0,0,0,0,0,0,0,0,0,0,0,0,0,0,0,0,0,0,0,0,0,0,0,0,0,NaN,NaN
7.03,81,7,28000000,1.85747,0.47911,0,0,1.60467,0.129147,0,0,1.60467,-0.129147,0,0,1.85747,-0.47911,0,0,7027,7,28000000,1.82906,0.457448,0.000756257,0.000875094,-0.608713,4.50507,1.57984,0.0819871,0.000761058,0.00063297,2.00852,6.47788,1.57793,-0.0726045,-0.000884362,-0.00117283,-7.49314,-2.68097,1.82163,-0.451262,-0.00142603,-0.000568791,-5.7295,0.720343,7027,7,28000000,0.00178184,3.83439e-06,0.000199622,0.999998,-0.000122923,-2.0829e-05,8.24717e-05,-9.54531e-05,0.0350001,9.80994,0,0,0,0,0,0,0,0,0,0,0,0,0,0,0,0,0,0,0,0,0,0,0,0,0,0,0,0,0,0,7,28999999,-0.0203007,-0.000636564,0.248151,0.00178178,3.82391e-06,0.000199663,0.999998,1,1,1,1,0,0,0,0,0,0,0,0,0,0,0,0,0,0,0,0,0,0,0,0,0,0,0,0,0,0,0,0,0,0,0,NaN,NaN
7.03,82,7,30000000,1.85747,0.47911,0,0,1.60467,0.129147,0,0,1.60467,-0.129147,0,0,1.85747,-0.47911,0,0,7028,7,28999999,1.82906,0.457449,0.000751976,0.00087589,-0.608773,4.50499,1.57984,0.0819878,0.00076218,0.000634007,2.00845,6.47782,1.57793,-0.0726055,-0.000869269,-0.0011796,-7.49309,-2.68085,1.82163,-0.451263,-0.00142469,-0.000567392,-5.72937,0.720392,7028,7,28999999,0.00178178,3.82391e-06,0.000199663,0.999998,-0.000123094,-2.08027e-05,8.24672e-05,-9.46532e-05,0.0349997,9.80994,0,0,0,0,0,0,0,0,0,0,0,0,0,0,0,0,0,0,0,0,0,0,0,0,0,0,0,0,0,0,7,28999999,-0.0203007,-0.000636564,0.248151,0.00178178,3.82391e-06,0.000199663,0.999998,1,1,1,1,0,0,0,0,0,0,0,0,0,0,0,0,0,0,0,0,0,0,0,0,0,0,0,0,0,0,0,0,0,0,0,NaN,NaN
7.031,83,7,30000000,1.85747,0.47911,0,0,1.60467,0.129147,0,0,1.60467,-0.129147,0,0,1.85747,-0.47911,0,0,7029,7,30000000,1.82906,0.45745,0.000747736,0.00087668,-0.608833,4.5049,1.57984,0.0819884,0.000763306,0.000635034,2.00838,6.47776,1.57793,-0.0726065,-0.000854496,-0.00118627,-7.49304,-2.68073,1.82163,-0.451264,-0.00142291,-0.000566003,-5.72925,0.72044,7029,7,30000000,0.00178171,3.81344e-06,0.000199704,0.999998,-0.000123268,-2.07645e-05,8.24629e-05,-9.38264e-05,0.0349992,9.80994,0,0,0,0,0,0,0,0,0,0,0,0,0,0,0,0,0,0,0,0,0,0,0,0,0,0,0,0,0,0,7,30000000,-0.0203007,-0.000636536,0.248151,0.00178171,3.81344e-06,0.000199704,0.999998,1,1,1,1,0,0,0,0,0,0,0,0,0,0,0,0,0,0,0,0,0,0,0,0,0,0,0,0,0,0,0,0,0,0,0,NaN,NaN
7.032,84,7,31000000,1.85747,0.47911,0,0,1.60467,0.129147,0,0,1.60467,-0.129147,0,0,1.85747,-0.47911,0,0,7030,7,31000000,1.82906,0.45745,0.000743539,0.000877462,-0.608893,4.50482,1.57984,0.0819892,0.000764437,0.000636051,2.00831,6.4777,1.57793,-0.0726075,-0.000840104,-0.00119281,-7.49299,-2.68061,1.82163,-0.451265,-0.00142071,-0.000564627,-5.72912,0.720489,7030,7,31000000,0.00178165,3.803e-06,0.000199745,0.999998,-0.000123445,-2.07146e-05,8.24588e-05,-9.29757e-05,0.0349987,9.80994,0,0,0,0,0,0,0,0,0,0,0,0,0,0,0,0,0,0,0,0,0,0,0,0,0,0,0,0,0,0,7,31000000,-0.0203007,-0.000636507,0.248151,0.00178165,3.803e-06,0.000199745,0.999998,1,1,1,1,0,0,0,0,0,0,0,0,0,0,0,0,0,0,0,0,0,0,0,0,0,0,0,0,0,0,0,0,0,0,0,NaN,NaN
7.033,85,7,32000000,1.85747,0.47911,0,0,1.60467,0.129147,0,0,1.60467,-0.129147,0,0,1.85747,-0.47911,0,0,7031,7,32000000,1.82906,0.457451,0.000739384,0.000878238,-0.608952,4.50474,1.57984,0.0819899,0.00076557,0.000637056,2.00824,6.47764,1.57793,-0.0726085,-0.000826148,-0.00119922,-7.49294,-2.68049,1.82163,-0.451266,-0.0014181,-0.000563265,-5.729,0.720537,7031,7,32000000,0.00178159,3.79258e-06,0.000199786,0.999998,-0.000123624,-2.06531e-05,8.24549e-05,-9.21038e-05,0.0349982,9.80994,0,0,0,0,0,0,0,0,0,0,0,0,0,0,0,0,0,0,0,0,0,0,0,0,0,0,0,0,0,0,7,32000000,-0.0203007,-0.000636479,0.248151,0.00178159,3.79258e-06,0.000199786,0.999998,1,1,1,1,0,0,0,0,0,0,0,0,0,0,0,0,0,0,0,0,0,0,0,0,0,0,0,0,0,0,0,0,0,0,0,NaN,NaN
7.035,86,7,33000000,1.85747,0.47911,0,0,1.60467,0.129147,0,0,1.60467,-0.129147,0,0,1.85747,-0.47911,0,0,7032,7,33000000,1.82906,0.457452,0.000735273,0.000879007,-0.609011,4.50466,1.57984,0.0819906,0.000766705,0.000638049,2.00817,6.47759,1.57793,-0.0726095,-0.000812684,-0.00120547,-7.49289,-2.68037,1.82163,-0.451267,-0.00141509,-0.000561919,-5.72888,0.720585,7032,7,33000000,0.00178153,3.78221e-06,0.000199828,0.999998,-0.000123806,-2.05802e-05,8.24512e-05,-9.12138e-05,0.0349976,9.80994,0,0,0,0,0,0,0,0,0,0,0,0,0,0,0,0,0,0,0,0,0,0,0,0,0,0,0,0,0,0,7,33999999,-0.0203007,-0.000636422,0.248151,0.00178147,3.77187e-06,0.000199869,0.999998,1,1,1,1,0,0,0,0,0,0,0,0,0,0,0,0,0,0,0,0,0,0,0,0,0,0,0,0,0,0,0,0,0,0,0,NaN,NaN
7.035,87,7,35000000,1.85747,0.47911,0,0,1.60467,0.129147,0,0,1.60467,-0.129147,0,0,1.85747,-0.47911,0,0,7033,7,33999999,1.82906,0.457453,0.000731207,0.000879768,-0.60907,4.50458,1.57984,0.0819913,0.000767841,0.000639029,2.0081,6.47753,1.57793,-0.0726105,-0.000799763,-0.00121157,-7.49284,-2.68025,1.82163,-0.451268,-0.00141169,-0.00056059,-5.72876,0.720633,7033,7,33999999,0.00178147,3.77187e-06,0.000199869,0.999998,-0.00012399,-2.04961e-05,8.24477e-05,-9.03084e-05,0.0349969,9.80994,0,0,0,0,0,0,0,0,0,0,0,0,0,0,0,0,0,0,0,0,0,0,0,0,0,0,0,0,0,0,7,33999999,-0.0203007,-0.000636422,0.248151,0.00178147,3.77187e-06,0.000199869,0.999998,1,1,1,1,0,0,0,0,0,0,0,0,0,0,0,0,0,0,0,0,0,0,0,0,0,0,0,0,0,0,0,0,0,0,0,NaN,NaN
7.036,88,7,35000000,1.85747,0.47911,0,0,1.60467,0.129147,0,0,1.60467,-0.129147,0,0,1.85747,-0.47911,0,0,7034,7,35000000,1.82906,0.457454,0.000727187,0.000880523,-0.609128,4.5045,1.57984,0.081992,0.000768975,0.000639997,2.00803,6.47747,1.57793,-0.0726115,-0.000787436,-0.0012175,-7.49279,-2.68013,1.82163,-0.451269,-0.00140792,-0.000559279,-5.72863,0.720681,7034,7,35000000,0.0017814,3.76159e-06,0.00019991,0.999998,-0.000124176,-2.0401e-05,8.24443e-05,-8.93906e-05,0.0349962,9.80994,0,0,0,0,0,0,0,0,0,0,0,0,0,0,0,0,0,0,0,0,0,0,0,0,0,0,0,0,0,0,7,35000000,-0.0203007,-0.000636393,0.248151,0.0017814,3.76159e-06,0.00019991,0.999998,1,1,1,1,0,0,0,0,0,0,0,0,0,0,0,0,0,0,0,0,0,0,0,0,0,0,0,0,0,0,0,0,0,0,0,NaN,NaN
7.038,89,7,36000000,1.85747,0.47911,0,0,1.60467,0.129147,0,0,1.60467,-0.129147,0,0,1.85747,-0.47911,0,0,7035,7,36000000,1.82906,0.457454,0.000723212,0.00088127,-0.609186,4.50442,1.57984,0.0819927,0.000770107,0.000640951,2.00795,6.47741,1.57793,-0.0726125,-0.000775749,-0.00122324,-7.49274,-2.68001,1.82163,-0.45127,-0.00140381,-0.000557988,-5.72852,0.720729,7035,7,36000000,0.00178134,3.75136e-06,0.000199951,0.999998,-0.000124364,-2.02952e-05,8.24412e-05,-8.8463e-05,0.0349954,9.80995,0,0,0,0,0,0,0,0,0,0,0,0,0,0,0,0,0,0,0,0,0,0,0,0,0,0,0,0,0,0,7,36999999,-0.0203007,-0.000636336,0.248151,0.00178128,3.74118e-06,0.000199992,0.999998,1,1,1,1,0,0,0,0,0,0,0,0,0,0,0,0,0,0,0,0,0,0,0,0,0,0,0,0,0,0,0,0,0,0,0,NaN,NaN
7.038,90,7,38000000,1.85747,0.47911,0,0,1.60467,0.129147,0,0,1.60467,-0.129147,0,0,1.85747,-0.47911,0,0,7036,7,36999999,1.82906,0.457455,0.000719285,0.00088201,-0.609244,4.50434,1.57984,0.0819934,0.000771235,0.000641891,2.00788,6.47735,1.57793,-0.0726135,-0.000764746,-0.00122879,-7.49269,-2.67989,1.82163,-0.451271,-0.00139936,-0.000556718,-5.7284,0.720777,7036,7,36999999,0.00178128,3.74118e-06,0.000199992,0.999998,-0.000124553,-2.01789e-05,8.24382e-05,-8.75282e-05,0.0349946,9.80995,0,0,0,0,0,0,0,0,0,0,0,0,0,0,0,0,0,0,0,0,0,0,0,0,0,0,0,0,0,0,7,36999999,-0.0203007,-0.000636336,0.248151,0.00178128,3.74118e-06,0.000199992,0.999998,1,1,1,1,0,0,0,0,0,0,0,0,0,0,0,0,0,0,0,0,0,0,0,0,0,0,0,0,0,0,0,0,0,0,0,NaN,NaN
7.039,91,7,38000000,1.85747,0.47911,0,0,1.60467,0.129147,0,0,1.60467,-0.129147,0,0,1.85747,-0.47911,0,0,7037,7,38000000,1.82906,0.457456,0.000715405,0.000882743,-0.609302,4.50426,1.57984,0.0819941,0.000772357,0.000642816,2.00781,6.47729,1.57793,-0.0726145,-0.000754466,-0.00123413,-7.49264,-2.67977,1.82163,-0.451272,-0.0013946,-0.000555471,-5.72828,0.720825,7037,7,38000000,0.00178122,3.73107e-06,0.000200034,0.999998,-0.000124744,-2.00526e-05,8.24354e-05,-8.65887e-05,0.0349938,9.80995,0,0,0,0,0,0,0,0,0,0,0,0,0,0,0,0,0,0,0,0,0,0,0,0,0,0,0,0,0,0,7,38000000,-0.0203007,-0.000636307,0.248151,0.00178122,3.73107e-06,0.000200034,0.999998,1,1,1,1,0,0,0,0,0,0,0,0,0,0,0,0,0,0,0,0,0,0,0,0,0,0,0,0,0,0,0,0,0,0,0,NaN,NaN
7.04,92,7,39000000,1.85747,0.47911,0,0,1.60467,0.129147,0,0,1.60467,-0.129147,0,0,1.85747,-0.47911,0,0,7038,7,39000000,1.82906,0.457457,0.000711572,0.00088347,-0.609359,4.50418,1.57984,0.0819948,0.000773473,0.000643727,2.00774,6.47723,1.57793,-0.0726155,-0.000744946,-0.00123926,-7.49259,-2.67965,1.82163,-0.451273,-0.00138956,-0.000554248,-5.72816,0.720873,7038,7,39000000,0.00178116,3.72102e-06,0.000200075,0.999998,-0.000124936,-1.99165e-05,8.24328e-05,-8.5647e-05,0.0349929,9.80995,0,0,0,0,0,0,0,0,0,0,0,0,0,0,0,0,0,0,0,0,0,0,0,0,0,0,0,0,0,0,7,39000000,-0.0203007,-0.000636278,0.248151,0.00178116,3.72102e-06,0.000200075,0.999998,1,1,1,1,0,0,0,0,0,0,0,0,0,0,0,0,0,0,0,0,0,0,0,0,0,0,0,0,0,0,0,0,0,0,0,NaN,NaN
7.041,93,7,40000000,1.85747,0.47911,0,0,1.60467,0.129147,0,0,1.60467,-0.129147,0,0,1.85747,-0.47911,0,0,7039,7,40000000,1.82906,0.457458,0.000707788,0.000884189,-0.609416,4.5041,1.57984,0.0819955,0.000774579,0.000644621,2.00767,6.47717,1.57793,-0.0726165,-0.000736218,-0.00124417,-7.49254,-2.67953,1.82163,-0.451274,-0.00138425,-0.000553051,-5.72805,0.720921,7039,7,40000000,0.00178109,3.71105e-06,0.000200116,0.999998,-0.000125129,-1.97711e-05,8.24304e-05,-8.47053e-05,0.0349919,9.80995,0,0,0,0,0,0,0,0,0,0,0,0,0,0,0,0,0,0,0,0,0,0,0,0,0,0,0,0,0,0,7,40000000,-0.0203007,-0.000636249,0.248151,0.00178109,3.71105e-06,0.000200116,0.999998,1,1,1,1,0,0,0,0,0,0,0,0,0,0,0,0,0,0,0,0,0,0,0,0,0,0,0,0,0,0,0,0,0,0,0,NaN,NaN
7.043,94,7,41000000,1.85747,0.47911,0,0,1.60467,0.129147,0,0,1.60467,-0.129147,0,0,1.85747,-0.47911,0,0,7040,7,41000000,1.82906,0.457458,0.000704052,0.000884902,-0.609473,4.50402,1.57984,0.0819962,0.000775675,0.0006455,2.0076,6.47711,1.57793,-0.0726175,-0.000728312,-0.00124885,-7.49249,-2.67941,1.82163,-0.451275,-0.0013787,-0.00055188,-5.72793,0.720968,7040,7,41000000,0.00178103,3.70116e-06,0.000200157,0.999998,-0.000125322,-1.96167e-05,8.24281e-05,-8.37657e-05,0.0349909,9.80995,0,0,0,0,0,0,0,0,0,0,0,0,0,0,0,0,0,0,0,0,0,0,0,0,0,0,0,0,0,0,7,41999999,-0.0203007,-0.000636191,0.248151,0.00178097,3.69134e-06,0.000200198,0.999998,1,1,1,1,0,0,0,0,0,0,0,0,0,0,0,0,0,0,0,0,0,0,0,0,0,0,0,0,0,0,0,0,0,0,0,NaN,NaN
7.043,94,7,41000000,1.85747,0.47911,0,0,1.60467,0.129147,0,0,1.60467,-0.129147,0,0,1.85747,-0.47911,0,0,7041,7,41999999,1.82906,0.457459,0.000700365,0.00088561,-0.609529,4.50394,1.57984,0.0819969,0.000776758,0.000646362,2.00753,6.47705,1.57793,-0.0726185,-0.000721251,-0.0012533,-7.49244,-2.67929,1.82163,-0.451276,-0.00137294,-0.000550737,-5.72782,0.721016,7041,7,41999999,0.00178097,3.69134e-06,0.000200198,0.999998,-0.000125517,-1.94538e-05,8.2426e-05,-8.28301e-05,0.0349898,9.80995,0,0,0,0,0,0,0,0,0,0,0,0,0,0,0,0,0,0,0,0,0,0,0,0,0,0,0,0,0,0,7,41999999,-0.0203007,-0.000636191,0.248151,0.00178097,3.69134e-06,0.000200198,0.999998,1,1,1,1,0,0,0,0,0,0,0,0,0,0,0,0,0,0,0,0,0,0,0,0,0,0,0,0,0,0,0,0,0,0,0,NaN,NaN
7.044,95,7,43000000,1.85747,0.47911,0,0,1.60467,0.129147,0,0,1.60467,-0.129147,0,0,1.85747,-0.47911,0,0,7042,7,43000000,1.82906,0.45746,0.000696727,0.000886311,-0.609586,4.50386,1.57984,0.0819976,0.000777826,0.000647208,2.00745,6.47699,1.57793,-0.0726195,-0.000715057,-0.0012575,-7.49238,-2.67917,1.82163,-0.451277,-0.001367,-0.000549624,-5.72771,0.721063,7042,7,43000000,0.0017809,3.68162e-06,0.00020024,0.999998,-0.000125711,-1.92828e-05,8.24241e-05,-8.19004e-05,0.0349887,9.80995,0,0,0,0,0,0,0,0,0,0,0,0,0,0,0,0,0,0,0,0,0,0,0,0,0,0,0,0,0,0,7,43000000,-0.0203008,-0.000636162,0.248151,0.0017809,3.68162e-06,0.00020024,0.999998,1,1,1,1,0,0,0,0,0,0,0,0,0,0,0,0,0,0,0,0,0,0,0,0,0,0,0,0,0,0,0,0,0,0,0,NaN,NaN
7.046,96,7,43000000,1.85747,0.47911,0,0,1.60467,0.129147,0,0,1.60467,-0.129147,0,0,1.85747,-0.47911,0,0,7043,7,44000000,1.82906,0.457461,0.000693139,0.000887007,-0.609642,4.50377,1.57984,0.0819983,0.000778878,0.000648037,2.00738,6.47693,1.57793,-0.0726205,-0.000709746,-0.00126145,-7.49233,-2.67905,1.82163,-0.451278,-0.0013609,-0.000548541,-5.7276,0.721111,7043,7,44000000,0.00178084,3.67198e-06,0.000200281,0.999998,-0.000125906,-1.91041e-05,8.24223e-05,-8.09781e-05,0.0349875,9.80995,0,0,0,0,0,0,0,0,0,0,0,0,0,0,0,0,0,0,0,0,0,0,0,0,0,0,0,0,0,0,7,44999999,-0.0203008,-0.000636104,0.248151,0.00178078,3.66243e-06,0.000200322,0.999998,1,1,1,1,0,0,0,0,0,0,0,0,0,0,0,0,0,0,0,0,0,0,0,0,0,0,0,0,0,0,0,0,0,0,0,NaN,NaN
7.046,97,7,44000000,1.85747,0.47911,0,0,1.60467,0.129147,0,0,1.60467,-0.129147,0,0,1.85747,-0.47911,0,0,7044,7,44999999,1.82906,0.457462,0.000689599,0.000887697,-0.609698,4.50369,1.57984,0.0819991,0.000779911,0.000648848,2.00731,6.47687,1.57793,-0.0726214,-0.000705331,-0.00126515,-7.49227,-2.67893,1.82163,-0.451279,-0.00135467,-0.000547489,-5.72749,0.721158,7044,7,44999999,0.00178078,3.66243e-06,0.000200322,0.999998,-0.000126101,-1.89183e-05,8.24207e-05,-8.00646e-05,0.0349863,9.80995,0,0,0,0,0,0,0,0,0,0,0,0,0,0,0,0,0,0,0,0,0,0,0,0,0,0,0,0,0,0,7,44999999,-0.0203008,-0.000636104,0.248151,0.00178078,3.66243e-06,0.000200322,0.999998,1,1,1,1,0,0,0,0,0,0,0,0,0,0,0,0,0,0,0,0,0,0,0,0,0,0,0,0,0,0,0,0,0,0,0,NaN,NaN
7.048,98,7,46000000,1.85747,0.47911,0,0,1.60467,0.129147,0,0,1.60467,-0.129147,0,0,1.85747,-0.47911,0,0,7045,7,46000000,1.82906,0.457462,0.000686109,0.000888383,-0.609753,4.50361,1.57984,0.0819998,0.000780923,0.000649641,2.00724,6.47681,1.57793,-0.0726224,-0.000701819,-0.00126859,-7.49222,-2.67881,1.82163,-0.45128,-0.00134834,-0.000546471,-5.72738,0.721206,7045,7,46000000,0.00178072,3.65299e-06,0.000200363,0.999998,-0.000126295,-1.87259e-05,8.24192e-05,-7.91613e-05,0.0349851,9.80995,0,0,0,0,0,0,0,0,0,0,0,0,0,0,0,0,0,0,0,0,0,0,0,0,0,0,0,0,0,0,7,46999999,-0.0203008,-0.000636046,0.248151,0.00178065,3.64364e-06,0.000200404,0.999998,1,1,1,1,0,0,0,0,0,0,0,0,0,0,0,0,0,0,0,0,0,0,0,0,0,0,0,0,0,0,0,0,0,0,0,NaN,NaN
7.048,99,7,46000000,1.85747,0.47911,0,0,1.60467,0.129147,0,0,1.60467,-0.129147,0,0,1.85747,-0.47911,0,0,7046,7,46999999,1.82906,0.457463,0.000682667,0.000889065,-0.609809,4.50353,1.57984,0.0820005,0.000781911,0.000650416,2.00717,6.47675,1.57793,-0.0726234,-0.000699216,-0.00127177,-7.49216,-2.67869,1.82163,-0.451281,-0.00134195,-0.000545486,-5.72727,0.721253,7046,7,46999999,0.00178065,3.64364e-06,0.000200404,0.999998,-0.00012649,-1.85274e-05,8.24178e-05,-7.82691e-05,0.0349838,9.80995,0,0,0,0,0,0,0,0,0,0,0,0,0,0,0,0,0,0,0,0,0,0,0,0,0,0,0,0,0,0,7,46999999,-0.0203008,-0.000636046,0.248151,0.00178065,3.64364e-06,0.000200404,0.999998,1,1,1,1,0,0,0,0,0,0,0,0,0,0,0,0,0,0,0,0,0,0,0,0,0,0,0,0,0,0,0,0,0,0,0,NaN,NaN
7.049,100,7,48000000,1.85747,0.47911,0,0,1.60467,0.129147,0,0,1.60467,-0.129147,0,0,1.85747,-0.47911,0,0,7047,7,48000000,1.82906,0.457464,0.000679275,0.000889743,-0.609864,4.50345,1.57984,0.0820012,0.000782874,0.000651174,2.00709,6.47669,1.57793,-0.0726244,-0.000697522,-0.00127468,-7.4921,-2.67857,1.82164,-0.451282,-0.00133552,-0.000544536,-5.72716,0.7213,7047,7,48000000,0.00178059,3.63439e-06,0.000200446,0.999998,-0.000126684,-1.83232e-05,8.24166e-05,-7.7389e-05,0.0349825,9.80995,0,0,0,0,0,0,0,0,0,0,0,0,0,0,0,0,0,0,0,0,0,0,0,0,0,0,0,0,0,0,7,48000000,-0.0203008,-0.000636016,0.248151,0.00178059,3.63439e-06,0.000200446,0.999998,1,1,1,1,0,0,0,0,0,0,0,0,0,0,0,0,0,0,0,0,0,0,0,0,0,0,0,0,0,0,0,0,0,0,0,NaN,NaN
7.051,101,7,48000000,1.85747,0.47911,0,0,1.60467,0.129147,0,0,1.60467,-0.129147,0,0,1.85747,-0.47911,0,0,7048,7,49000000,1.82906,0.457465,0.000675932,0.000890417,-0.609919,4.50337,1.57984,0.0820019,0.000783809,0.000651913,2.00702,6.47663,1.57793,-0.0726254,-0.000696733,-0.00127733,-7.49204,-2.67845,1.82164,-0.451283,-0.00132907,-0.000543621,-5.72705,0.721348,7048,7,49000000,0.00178053,3.62524e-06,0.000200487,0.999998,-0.000126877,-1.8114e-05,8.24155e-05,-7.65218e-05,0.0349811,9.80995,0,0,0,0,0,0,0,0,0,0,0,0,0,0,0,0,0,0,0,0,0,0,0,0,0,0,0,0,0,0,7,49999999,-0.0203008,-0.000635958,0.248151,0.00178046,3.61621e-06,0.000200528,0.999998,1,1,1,1,0,0,0,0,0,0,0,0,0,0,0,0,0,0,0,0,0,0,0,0,0,0,0,0,0,0,0,0,0,0,0,NaN,NaN
7.051,102,7,49000000,1.85747,0.47911,0,0,1.60467,0.129147,0,0,1.60467,-0.129147,0,0,1.85747,-0.47911,0,0,7049,7,49999999,1.82906,0.457466,0.000672638,0.000891089,-0.609974,4.50329,1.57984,0.0820026,0.000784714,0.000652633,2.00695,6.47657,1.57793,-0.0726264,-0.000696842,-0.00127971,-7.49197,-2.67833,1.82164,-0.451284,-0.00132265,-0.000542743,-5.72694,0.721395,7049,7,49999999,0.00178046,3.61621e-06,0.000200528,0.999998,-0.00012707,-1.79002e-05,8.24145e-05,-7.56679e-05,0.0349797,9.80995,0,0,0,0,0,0,0,0,0,0,0,0,0,0,0,0,0,0,0,0,0,0,0,0,0,0,0,0,0,0,7,49999999,-0.0203008,-0.000635958,0.248151,0.00178046,3.61621e-06,0.000200528,0.999998,1,1,1,1,0,0,0,0,0,0,0,0,0,0,0,0,0,0,0,0,0,0,0,0,0,0,0,0,0,0,0,0,0,0,0,NaN,NaN
7.052,103,7,51000000,1.85747,0.47911,0,0,1.60467,0.129147,0,0,1.60467,-0.129147,0,0,1.85747,-0.47911,0,0,7050,7,51000000,1.82906,0.457466,0.000669393,0.000891759,-0.610028,4.50321,1.57984,0.0820034,0.000785586,0.000653335,2.00688,6.47651,1.57793,-0.0726274,-0.000697839,-0.00128182,-7.49191,-2.67821,1.82164,-0.451284,-0.00131628,-0.000541903,-5.72683,0.721442,7050,7,51000000,0.0017804,3.60728e-06,0.000200569,0.999998,-0.000127261,-1.76825e-05,8.24136e-05,-7.48278e-05,0.0349783,9.80995,0,0,0,0,0,0,0,0,0,0,0,0,0,0,0,0,0,0,0,0,0,0,0,0,0,0,0,0,0,0,7,51000000,-0.0203008,-0.000635928,0.24815,0.0017804,3.60728e-06,0.000200569,0.999998,1,1,1,1,0,0,0,0,0,0,0,0,0,0,0,0,0,0,0,0,0,0,0,0,0,0,0,0,0,0,0,0,0,0,0,NaN,NaN
7.054,104,7,51000000,1.85747,0.47911,0,0,1.60467,0.129147,0,0,1.60467,-0.129147,0,0,1.85747,-0.47911,0,0,7051,7,52000000,1.82906,0.457467,0.000666196,0.000892426,-0.610083,4.50312,1.57984,0.0820041,0.000786422,0.000654018,2.0068,6.47645,1.57793,-0.0726284,-0.000699711,-0.00128366,-7.49184,-2.67809,1.82164,-0.451285,-0.00130999,-0.000541101,-5.72673,0.721489,7051,7,52000000,0.00178033,3.59846e-06,0.00020061,0.999998,-0.000127452,-1.74612e-05,8.24129e-05,-7.40017e-05,0.0349768,9.80995,0,0,0,0,0,0,0,0,0,0,0,0,0,0,0,0,0,0,0,0,0,0,0,0,0,0,0,0,0,0,7,52999999,-0.0203008,-0.000635869,0.24815,0.00178027,3.58976e-06,0.000200652,0.999998,1,1,1,1,0,0,0,0,0,0,0,0,0,0,0,0,0,0,0,0,0,0,0,0,0,0,0,0,0,0,0,0,0,0,0,NaN,NaN
7.054,105,7,52000000,1.85747,0.47911,0,0,1.60467,0.129147,0,0,1.60467,-0.129147,0,0,1.85747,-0.47911,0,0,7052,7,52999999,1.82906,0.457468,0.000663047,0.000893093,-0.610137,4.50304,1.57984,0.0820048,0.000787221,0.000654682,2.00673,6.47639,1.57793,-0.0726294,-0.000702438,-0.00128524,-7.49177,-2.67797,1.82164,-0.451286,-0.00130381,-0.000540338,-5.72662,0.721537,7052,7,52999999,0.00178027,3.58976e-06,0.000200652,0.999998,-0.000127642,-1.7237e-05,8.24122e-05,-7.31897e-05,0.0349753,9.80995,0,0,0,0,0,0,0,0,0,0,0,0,0,0,0,0,0,0,0,0,0,0,0,0,0,0,0,0,0,0,7,52999999,-0.0203008,-0.000635869,0.24815,0.00178027,3.58976e-06,0.000200652,0.999998,1,1,1,1,0,0,0,0,0,0,0,0,0,0,0,0,0,0,0,0,0,0,0,0,0,0,0,0,0,0,0,0,0,0,0,NaN,NaN
7.056,106,7,54000000,1.85747,0.47911,0,0,1.60467,0.129147,0,0,1.60467,-0.129147,0,0,1.85747,-0.47911,0,0,7053,7,54000000,1.82906,0.457469,0.000659946,0.000893759,-0.610191,4.50296,1.57984,0.0820055,0.000787979,0.000655327,2.00666,6.47633,1.57793,-0.0726304,-0.000706002,-0.00128655,-7.49171,-2.67786,1.82164,-0.451287,-0.00129776,-0.000539615,-5.72651,0.721584,7053,7,54000000,0.00178021,3.58117e-06,0.000200693,0.999998,-0.00012783,-1.70105e-05,8.24116e-05,-7.23917e-05,0.0349738,9.80995,0,0,0,0,0,0,0,0,0,0,0,0,0,0,0,0,0,0,0,0,0,0,0,0,0,0,0,0,0,0,7,54999999,-0.0203008,-0.00063581,0.24815,0.00178014,3.57269e-06,0.000200734,0.999998,1,1,1,1,0,0,0,0,0,0,0,0,0,0,0,0,0,0,0,0,0,0,0,0,0,0,0,0,0,0,0,0,0,0,0,NaN,NaN
7.056,107,7,54000000,1.85747,0.47911,0,0,1.60467,0.129147,0,0,1.60467,-0.129147,0,0,1.85747,-0.47911,0,0,7054,7,54999999,1.82906,0.457469,0.000656892,0.000894424,-0.610245,4.50288,1.57984,0.0820063,0.000788694,0.000655954,2.00659,6.47627,1.57793,-0.0726314,-0.000710379,-0.0012876,-7.49163,-2.67774,1.82164,-0.451288,-0.00129188,-0.000538932,-5.72641,0.721631,7054,7,54999999,0.00178014,3.57269e-06,0.000200734,0.999998,-0.000128017,-1.6782e-05,8.2411e-05,-7.16076e-05,0.0349722,9.80995,0,0,0,0,0,0,0,0,0,0,0,0,0,0,0,0,0,0,0,0,0,0,0,0,0,0,0,0,0,0,7,54999999,-0.0203008,-0.00063581,0.24815,0.00178014,3.57269e-06,0.000200734,0.999998,1,1,1,1,0,0,0,0,0,0,0,0,0,0,0,0,0,0,0,0,0,0,0,0,0,0,0,0,0,0,0,0,0,0,0,NaN,NaN
7.057,108,7,56000000,1.85747,0.47911,0,0,1.60467,0.129147,0,0,1.60467,-0.129147,0,0,1.85747,-0.47911,0,0,7055,7,56000000,1.82906,0.45747,0.000653886,0.00089509,-0.610298,4.5028,1.57984,0.082007,0.000789363,0.000656562,2.00652,6.47621,1.57793,-0.0726324,-0.000715542,-0.00128839,-7.49156,-2.67762,1.82164,-0.451289,-0.00128618,-0.00053829,-5.7263,0.721679,7055,7,56000000,0.00178008,3.56433e-06,0.000200775,0.999998,-0.000128203,-1.65523e-05,8.24106e-05,-7.08369e-05,0.0349707,9.80995,0,0,0,0,0,0,0,0,0,0,0,0,0,0,0,0,0,0,0,0,0,0,0,0,0,0,0,0,0,0,7,56000000,-0.0203008,-0.000635781,0.24815,0.00178008,3.56433e-06,0.000200775,0.999998,1,1,1,1,0,0,0,0,0,0,0,0,0,0,0,0,0,0,0,0,0,0,0,0,0,0,0,0,0,0,0,0,0,0,0,NaN,NaN
7.059,109,7,56000000,1.85747,0.47911,0,0,1.60467,0.129147,0,0,1.60467,-0.129147,0,0,1.85747,-0.47911,0,0,7056,7,57000000,1.82906,0.457471,0.000650926,0.000895757,-0.610352,4.50272,1.57984,0.0820077,0.000789984,0.000657151,2.00644,6.47615,1.57793,-0.0726334,-0.000721463,-0.00128892,-7.49148,-2.6775,1.82164,-0.45129,-0.0012807,-0.00053769,-5.7262,0.721726,7056,7,57000000,0.00178001,3.55608e-06,0.000200816,0.999998,-0.000128388,-1.63217e-05,8.24102e-05,-7.00794e-05,0.0349691,9.80995,0,0,0,0,0,0,0,0,0,0,0,0,0,0,0,0,0,0,0,0,0,0,0,0,0,0,0,0,0,0,7,57999999,-0.0203008,-0.000635721,0.24815,0.00177995,3.54795e-06,0.000200858,0.999998,1,1,1,1,0,0,0,0,0,0,0,0,0,0,0,0,0,0,0,0,0,0,0,0,0,0,0,0,0,0,0,0,0,0,0,NaN,NaN
7.059,110,7,57000000,1.85747,0.47911,0,0,1.60467,0.129147,0,0,1.60467,-0.129147,0,0,1.85747,-0.47911,0,0,7057,7,57999999,1.82906,0.457472,0.000648012,0.000896425,-0.610405,4.50263,1.57984,0.0820084,0.000790554,0.000657722,2.00637,6.47609,1.57793,-0.0726344,-0.000728112,-0.0012892,-7.49141,-2.67739,1.82164,-0.451291,-0.00127545,-0.000537131,-5.72609,0.721773,7057,7,57999999,0.00177995,3.54795e-06,0.000200858,0.999998,-0.00012857,-1.60908e-05,8.24098e-05,-6.93345e-05,0.0349674,9.80995,0,0,0,0,0,0,0,0,0,0,0,0,0,0,0,0,0,0,0,0,0,0,0,0,0,0,0,0,0,0,7,57999999,-0.0203008,-0.000635721,0.24815,0.00177995,3.54795e-06,0.000200858,0.999998,1,1,1,1,0,0,0,0,0,0,0,0,0,0,0,0,0,0,0,0,0,0,0,0,0,0,0,0,0,0,0,0,0,0,0,NaN,NaN
7.06,111,7,59000000,1.85747,0.47911,0,0,1.60467,0.129147,0,0,1.60467,-0.129147,0,0,1.85747,-0.47911,0,0,7058,7,59000000,1.82906,0.457473,0.000645144,0.000897096,-0.610458,4.50255,1.57984,0.0820091,0.00079107,0.000658274,2.0063,6.47603,1.57793,-0.0726354,-0.000735454,-0.00128924,-7.49133,-2.67727,1.82164,-0.451292,-0.00127047,-0.000536616,-5.72599,0.721821,7058,7,59000000,0.00177989,3.53993e-06,0.000200899,0.999998,-0.000128752,-1.586e-05,8.24096e-05,-6.86014e-05,0.0349658,9.80994,0,0,0,0,0,0,0,0,0,0,0,0,0,0,0,0,0,0,0,0,0,0,0,0,0,0,0,0,0,0,7,59000000,-0.0203008,-0.000635692,0.24815,0.00177989,3.53993e-06,0.000200899,0.999998,1,1,1,1,0,0,0,0,0,0,0,0,0,0,0,0,0,0,0,0,0,0,0,0,0,0,0,0,0,0,0,0,0,0,0,NaN,NaN
7.062,112,7,59000000,1.85747,0.47911,0,0,1.60467,0.129147,0,0,1.60467,-0.129147,0,0,1.85747,-0.47911,0,0,7059,7,60000000,1.82906,0.457473,0.00064232,0.000897768,-0.610511,4.50247,1.57984,0.0820099,0.00079153,0.000658808,2.00623,6.47597,1.57793,-0.0726364,-0.000743455,-0.00128903,-7.49125,-2.67716,1.82164,-0.451293,-0.00126576,-0.000536143,-5.72588,0.721868,7059,7,60000000,0.00177982,3.53203e-06,0.00020094,0.999998,-0.000128931,-1.56299e-05,8.24093e-05,-6.78796e-05,0.0349642,9.80994,0,0,0,0,0,0,0,0,0,0,0,0,0,0,0,0,0,0,0,0,0,0,0,0,0,0,0,0,0,0,7,60999999,-0.0203008,-0.000635632,0.24815,0.00177976,3.52425e-06,0.000200981,0.999998,1,1,1,1,0,0,0,0,0,0,0,0,0,0,0,0,0,0,0,0,0,0,0,0,0,0,0,0,0,0,0,0,0,0,0,NaN,NaN
7.062,113,7,60000000,1.85747,0.47911,0,0,1.60467,0.129147,0,0,1.60467,-0.129147,0,0,1.85747,-0.47911,0,0,7060,7,60999999,1.82906,0.457474,0.000639542,0.000898444,-0.610563,4.50239,1.57984,0.0820106,0.000791932,0.000659323,2.00615,6.47591,1.57793,-0.0726374,-0.000752078,-0.00128859,-7.49116,-2.67704,1.82164,-0.451294,-0.00126135,-0.000535714,-5.72577,0.721916,7060,7,60999999,0.00177976,3.52425e-06,0.000200981,0.999998,-0.000129109,-1.54009e-05,8.24091e-05,-6.71682e-05,0.0349625,9.80994,0,0,0,0,0,0,0,0,0,0,0,0,0,0,0,0,0,0,0,0,0,0,0,0,0,0,0,0,0,0,7,60999999,-0.0203008,-0.000635632,0.24815,0.00177976,3.52425e-06,0.000200981,0.999998,1,1,1,1,0,0,0,0,0,0,0,0,0,0,0,0,0,0,0,0,0,0,0,0,0,0,0,0,0,0,0,0,0,0,0,NaN,NaN
7.064,114,7,62000000,1.85747,0.47911,0,0,1.60467,0.129147,0,0,1.60467,-0.129147,0,0,1.85747,-0.47911,0,0,7061,7,62000000,1.82906,0.457475,0.000636807,0.000899122,-0.610616,4.50231,1.57984,0.0820113,0.000792272,0.000659821,2.00608,6.47585,1.57793,-0.0726384,-0.000761284,-0.00128792,-7.49108,-2.67693,1.82164,-0.451295,-0.00125726,-0.000535329,-5.72567,0.721963,7061,7,62000000,0.00177969,3.51657e-06,0.000201022,0.999998,-0.000129286,-1.51734e-05,8.24089e-05,-6.64663e-05,0.0349608,9.80994,0,0,0,0,0,0,0,0,0,0,0,0,0,0,0,0,0,0,0,0,0,0,0,0,0,0,0,0,0,0,7,62999999,-0.0203008,-0.000635572,0.24815,0.00177963,3.50901e-06,0.000201063,0.999998,1,1,1,1,0,0,0,0,0,0,0,0,0,0,0,0,0,0,0,0,0,0,0,0,0,0,0,0,0,0,0,0,0,0,0,NaN,NaN
7.064,115,7,62000000,1.85747,0.47911,0,0,1.60467,0.129147,0,0,1.60467,-0.129147,0,0,1.85747,-0.47911,0,0,7062,7,62999999,1.82906,0.457476,0.000634115,0.000899805,-0.610668,4.50222,1.57984,0.0820121,0.000792549,0.000660301,2.00601,6.47579,1.57793,-0.0726395,-0.000771033,-0.00128703,-7.49099,-2.67681,1.82164,-0.451295,-0.0012535,-0.000534989,-5.72556,0.722011,7062,7,62999999,0.00177963,3.50901e-06,0.000201063,0.999998,-0.00012946,-1.49479e-05,8.24087e-05,-6.5773e-05,0.0349591,9.80994,0,0,0,0,0,0,0,0,0,0,0,0,0,0,0,0,0,0,0,0,0,0,0,0,0,0,0,0,0,0,7,62999999,-0.0203008,-0.000635572,0.24815,0.00177963,3.50901e-06,0.000201063,0.999998,1,1,1,1,0,0,0,0,0,0,0,0,0,0,0,0,0,0,0,0,0,0,0,0,0,0,0,0,0,0,0,0,0,0,0,NaN,NaN
7.065,116,7,64000000,1.85747,0.47911,0,0,1.60467,0.129147,0,0,1.60467,-0.129147,0,0,1.85747,-0.47911,0,0,7063,7,64000000,1.82906,0.457476,0.000631466,0.000900492,-0.610721,4.50214,1.57984,0.0820128,0.000792759,0.000660764,2.00594,6.47573,1.57793,-0.0726405,-0.000781283,-0.00128592,-7.49091,-2.6767,1.82164,-0.451296,-0.00125009,-0.000534693,-5.72545,0.722058,7063,7,64000000,0.00177956,3.50156e-06,0.000201105,0.999998,-0.000129633,-1.47247e-05,8.24086e-05,-6.50874e-05,0.0349575,9.80994,0,0,0,0,0,0,0,0,0,0,0,0,0,0,0,0,0,0,0,0,0,0,0,0,0,0,0,0,0,0,7,64000000,-0.0203009,-0.000635542,0.24815,0.00177956,3.50156e-06,0.000201105,0.999998,1,1,1,1,0,0,0,0,0,0,0,0,0,0,0,0,0,0,0,0,0,0,0,0,0,0,0,0,0,0,0,0,0,0,0,NaN,NaN
7.067,117,7,64000000,1.85747,0.47911,0,0,1.60467,0.129147,0,0,1.60467,-0.129147,0,0,1.85747,-0.47911,0,0,7064,7,65000000,1.82906,0.457477,0.00062886,0.000901183,-0.610773,4.50206,1.57984,0.0820135,0.000792901,0.000661209,2.00587,6.47567,1.57793,-0.0726415,-0.000791991,-0.00128461,-7.49082,-2.67659,1.82164,-0.451297,-0.00124703,-0.000534442,-5.72535,0.722106,7064,7,65000000,0.0017795,3.49423e-06,0.000201146,0.999998,-0.000129804,-1.45042e-05,8.24084e-05,-6.44085e-05,0.0349558,9.80994,0,0,0,0,0,0,0,0,0,0,0,0,0,0,0,0,0,0,0,0,0,0,0,0,0,0,0,0,0,0,7,65999999,-0.0203009,-0.000635482,0.24815,0.00177943,3.487e-06,0.000201187,0.999998,1,1,1,1,0,0,0,0,0,0,0,0,0,0,0,0,0,0,0,0,0,0,0,0,0,0,0,0,0,0,0,0,0,0,0,NaN,NaN
7.067,118,7,65000000,1.85747,0.47911,0,0,1.60467,0.129147,0,0,1.60467,-0.129147,0,0,1.85747,-0.47911,0,0,7065,7,65999999,1.82906,0.457478,0.000626294,0.000901879,-0.610824,4.50198,1.57984,0.0820142,0.000792971,0.000661637,2.0058,6.47561,1.57793,-0.0726426,-0.000803115,-0.00128309,-7.49072,-2.67647,1.82164,-0.451298,-0.00124434,-0.000534236,-5.72524,0.722154,7065,7,65999999,0.00177943,3.487e-06,0.000201187,0.999998,-0.000129973,-1.42869e-05,8.24083e-05,-6.37352e-05,0.034954,9.80994,0,0,0,0,0,0,0,0,0,0,0,0,0,0,0,0,0,0,0,0,0,0,0,0,0,0,0,0,0,0,7,65999999,-0.0203009,-0.000635482,0.24815,0.00177943,3.487e-06,0.000201187,0.999998,1,1,1,1,0,0,0,0,0,0,0,0,0,0,0,0,0,0,0,0,0,0,0,0,0,0,0,0,0,0,0,0,0,0,0,NaN,NaN
7.068,119,7,67000000,1.85747,0.47911,0,0,1.60467,0.129147,0,0,1.60467,-0.129147,0,0,1.85747,-0.47911,0,0,7066,7,67000000,1.82906,0.457479,0.000623769,0.00090258,-0.610876,4.50189,1.57984,0.082015,0.000792968,0.000662049,2.00572,6.47555,1.57792,-0.0726436,-0.000814609,-0.00128139,-7.49063,-2.67636,1.82164,-0.451299,-0.00124203,-0.000534076,-5.72513,0.722202,7066,7,67000000,0.00177937,3.47987e-06,0.000201228,0.999998,-0.00013014,-1.40729e-05,8.24082e-05,-6.30664e-05,0.0349523,9.80994,0,0,0,0,0,0,0,0,0,0,0,0,0,0,0,0,0,0,0,0,0,0,0,0,0,0,0,0,0,0,7,67000000,-0.0203009,-0.000635452,0.24815,0.00177937,3.47987e-06,0.000201228,0.999998,1,1,1,1,0,0,0,0,0,0,0,0,0,0,0,0,0,0,0,0,0,0,0,0,0,0,0,0,0,0,0,0,0,0,0,NaN,NaN
7.07,120,7,67000000,1.85747,0.47911,0,0,1.60467,0.129147,0,0,1.60467,-0.129147,0,0,1.85747,-0.47911,0,0,7067,7,68000000,1.82906,0.457479,0.000621284,0.000903287,-0.610928,4.50181,1.57984,0.0820157,0.00079289,0.000662445,2.00565,6.47549,1.57792,-0.0726447,-0.000826428,-0.0012795,-7.49054,-2.67625,1.82164,-0.4513,-0.0012401,-0.000533963,-5.72502,0.722249,7067,7,68000000,0.0017793,3.47286e-06,0.000201269,0.999998,-0.000130306,-1.38627e-05,8.2408e-05,-6.24012e-05,0.0349506,9.80994,0,0,0,0,0,0,0,0,0,0,0,0,0,0,0,0,0,0,0,0,0,0,0,0,0,0,0,0,0,0,7,68999999,-0.0203009,-0.000635392,0.24815,0.00177924,3.46594e-06,0.000201311,0.999998,1,1,1,1,0,0,0,0,0,0,0,0,0,0,0,0,0,0,0,0,0,0,0,0,0,0,0,0,0,0,0,0,0,0,0,NaN,NaN
7.07,121,7,68000000,1.85747,0.47911,0,0,1.60467,0.129147,0,0,1.60467,-0.129147,0,0,1.85747,-0.47911,0,0,7068,7,68999999,1.82906,0.45748,0.000618838,0.000904,-0.610979,4.50173,1.57984,0.0820164,0.000792734,0.000662824,2.00558,6.47543,1.57792,-0.0726457,-0.000838526,-0.00127743,-7.49044,-2.67614,1.82164,-0.451301,-0.00123855,-0.000533895,-5.72492,0.722297,7068,7,68999999,0.00177924,3.46594e-06,0.000201311,0.999998,-0.000130469,-1.36564e-05,8.24079e-05,-6.17384e-05,0.0349489,9.80993,0,0,0,0,0,0,0,0,0,0,0,0,0,0,0,0,0,0,0,0,0,0,0,0,0,0,0,0,0,0,7,68999999,-0.0203009,-0.000635392,0.24815,0.00177924,3.46594e-06,0.000201311,0.999998,1,1,1,1,0,0,0,0,0,0,0,0,0,0,0,0,0,0,0,0,0,0,0,0,0,0,0,0,0,0,0,0,0,0,0,NaN,NaN
7.072,122,7,70000000,1.85747,0.47911,0,0,1.60467,0.129147,0,0,1.60467,-0.129147,0,0,1.85747,-0.47911,0,0,7069,7,70000000,1.82906,0.457481,0.00061643,0.000904718,-0.61103,4.50165,1.57984,0.0820171,0.000792497,0.000663188,2.00551,6.47537,1.57792,-0.0726468,-0.000850857,-0.00127519,-7.49034,-2.67603,1.82164,-0.451302,-0.0012374,-0.000533875,-5.72481,0.722345,7069,7,70000000,0.00177917,3.45913e-06,0.000201352,0.999998,-0.000130631,-1.34545e-05,8.24077e-05,-6.1077e-05,0.0349472,9.80993,0,0,0,0,0,0,0,0,0,0,0,0,0,0,0,0,0,0,0,0,0,0,0,0,0,0,0,0,0,0,7,70999999,-0.0203009,-0.000635331,0.24815,0.00177911,3.45241e-06,0.000201393,0.999998,1,1,1,1,0,0,0,0,0,0,0,0,0,0,0,0,0,0,0,0,0,0,0,0,0,0,0,0,0,0,0,0,0,0,0,NaN,NaN
7.072,123,7,70000000,1.85747,0.47911,0,0,1.60467,0.129147,0,0,1.60467,-0.129147,0,0,1.85747,-0.47911,0,0,7070,7,70999999,1.82906,0.457482,0.00061406,0.000905443,-0.611082,4.50156,1.57983,0.0820179,0.000792179,0.000663537,2.00544,6.47531,1.57792,-0.0726479,-0.000863375,-0.0012728,-7.49024,-2.67592,1.82164,-0.451303,-0.00123664,-0.000533901,-5.7247,0.722393,7070,7,70999999,0.00177911,3.45241e-06,0.000201393,0.999998,-0.000130792,-1.3257e-05,8.24075e-05,-6.04158e-05,0.0349455,9.80993,0,0,0,0,0,0,0,0,0,0,0,0,0,0,0,0,0,0,0,0,0,0,0,0,0,0,0,0,0,0,7,70999999,-0.0203009,-0.000635331,0.24815,0.00177911,3.45241e-06,0.000201393,0.999998,1,1,1,1,0,0,0,0,0,0,0,0,0,0,0,0,0,0,0,0,0,0,0,0,0,0,0,0,0,0,0,0,0,0,0,NaN,NaN
7.073,124,7,72000000,1.85747,0.47911,0,0,1.60467,0.129147,0,0,1.60467,-0.129147,0,0,1.85747,-0.47911,0,0,7071,7,72000000,1.82906,0.457482,0.000611726,0.000906174,-0.611133,4.50148,1.57983,0.0820186,0.000791777,0.00066387,2.00537,6.47525,1.57792,-0.0726489,-0.000876031,-0.00127026,-7.49014,-2.67581,1.82164,-0.451303,-0.00123627,-0.000533975,-5.72459,0.722442,7071,7,72000000,0.00177904,3.44579e-06,0.000201434,0.999998,-0.00013095,-1.30642e-05,8.24073e-05,-5.9754e-05,0.0349438,9.80993,0,0,0,0,0,0,0,0,0,0,0,0,0,0,0,0,0,0,0,0,0,0,0,0,0,0,0,0,0,0,7,72000000,-0.0203009,-0.000635301,0.24815,0.00177904,3.44579e-06,0.000201434,0.999998,1,1,1,1,0,0,0,0,0,0,0,0,0,0,0,0,0,0,0,0,0,0,0,0,0,0,0,0,0,0,0,0,0,0,0,NaN,NaN
7.075,125,7,72000000,1.85747,0.47911,0,0,1.60467,0.129147,0,0,1.60467,-0.129147,0,0,1.85747,-0.47911,0,0,7072,7,73000000,1.82906,0.457483,0.000609428,0.000906911,-0.611183,4.5014,1.57983,0.0820193,0.000791289,0.00066419,2.0053,6.47519,1.57792,-0.07265,-0.00088878,-0.00126757,-7.49004,-2.6757,1.82164,-0.451304,-0.0012363,-0.000534096,-5.72447,0.72249,7072,7,73000000,0.00177898,3.43927e-06,0.000201475,0.999998,-0.000131107,-1.28762e-05,8.24071e-05,-5.90903e-05,0.0349421,9.80993,0,0,0,0,0,0,0,0,0,0,0,0,0,0,0,0,0,0,0,0,0,0,0,0,0,0,0,0,0,0,7,73999999,-0.0203009,-0.00063524,0.248149,0.00177891,3.43284e-06,0.000201517,0.999998,1,1,1,1,0,0,0,0,0,0,0,0,0,0,0,0,0,0,0,0,0,0,0,0,0,0,0,0,0,0,0,0,0,0,0,NaN,NaN
7.075,126,7,73000000,1.85747,0.47911,0,0,1.60467,0.129147,0,0,1.60467,-0.129147,0,0,1.85747,-0.47911,0,0,7073,7,73999999,1.82906,0.457484,0.000607165,0.000907655,-0.611234,4.50132,1.57983,0.0820201,0.000790714,0.000664495,2.00523,6.47513,1.57792,-0.0726511,-0.000901574,-0.00126475,-7.48993,-2.67559,1.82164,-0.451305,-0.00123671,-0.000534265,-5.72436,0.722538,7073,7,73999999,0.00177891,3.43284e-06,0.000201517,0.999998,-0.000131261,-1.26933e-05,8.24069e-05,-5.8424e-05,0.0349404,9.80993,0,0,0,0,0,0,0,0,0,0,0,0,0,0,0,0,0,0,0,0,0,0,0,0,0,0,0,0,0,0,7,73999999,-0.0203009,-0.00063524,0.248149,0.00177891,3.43284e-06,0.000201517,0.999998,1,1,1,1,0,0,0,0,0,0,0,0,0,0,0,0,0,0,0,0,0,0,0,0,0,0,0,0,0,0,0,0,0,0,0,NaN,NaN
7.076,127,7,75000000,1.85747,0.47911,0,0,1.60467,0.129147,0,0,1.60467,-0.129147,0,0,1.85747,-0.47911,0,0,7074,7,75000000,1.82906,0.457485,0.000604936,0.000908405,-0.611285,4.50123,1.57983,0.0820208,0.00079005,0.000664786,2.00516,6.47507,1.57792,-0.0726522,-0.000914366,-0.00126181,-7.48983,-2.67548,1.82165,-0.451306,-0.00123749,-0.000534482,-5.72425,0.722587,7074,7,75000000,0.00177884,3.42649e-06,0.000201558,0.999998,-0.000131415,-1.25155e-05,8.24066e-05,-5.7754e-05,0.0349387,9.80993,0,0,0,0,0,0,0,0,0,0,0,0,0,0,0,0,0,0,0,0,0,0,0,0,0,0,0,0,0,0,7,75000000,-0.0203009,-0.00063521,0.248149,0.00177884,3.42649e-06,0.000201558,0.999998,1,1,1,1,0,0,0,0,0,0,0,0,0,0,0,0,0,0,0,0,0,0,0,0,0,0,0,0,0,0,0,0,0,0,0,NaN,NaN
7.078,128,7,75000000,1.85747,0.47911,0,0,1.60467,0.129147,0,0,1.60467,-0.129147,0,0,1.85747,-0.47911,0,0,7075,7,76000000,1.82906,0.457486,0.000602741,0.000909162,-0.611335,4.50115,1.57983,0.0820215,0.000789294,0.000665065,2.00509,6.47501,1.57792,-0.0726533,-0.00092711,-0.00125875,-7.48972,-2.67537,1.82165,-0.451307,-0.00123866,-0.000534748,-5.72414,0.722635,7075,7,76000000,0.00177878,3.42023e-06,0.000201599,0.999998,-0.000131566,-1.23429e-05,8.24063e-05,-5.70794e-05,0.034937,9.80993,0,0,0,0,0,0,0,0,0,0,0,0,0,0,0,0,0,0,0,0,0,0,0,0,0,0,0,0,0,0,7,76999999,-0.0203009,-0.000635149,0.248149,0.00177871,3.41406e-06,0.00020164,0.999998,1,1,1,1,0,0,0,0,0,0,0,0,0,0,0,0,0,0,0,0,0,0,0,0,0,0,0,0,0,0,0,0,0,0,0,NaN,NaN
7.078,129,7,76000000,1.85747,0.47911,0,0,1.60467,0.129147,0,0,1.60467,-0.129147,0,0,1.85747,-0.47911,0,0,7076,7,76999999,1.82906,0.457486,0.000600578,0.000909925,-0.611385,4.50107,1.57983,0.0820222,0.000788447,0.00066533,2.00502,6.47495,1.57792,-0.0726544,-0.00093976,-0.00125558,-7.48962,-2.67526,1.82165,-0.451308,-0.00124019,-0.000535062,-5.72402,0.722684,7076,7,76999999,0.00177871,3.41406e-06,0.00020164,0.999998,-0.000131716,-1.21757e-05,8.2406e-05,-5.63993e-05,0.0349353,9.80992,0,0,0,0,0,0,0,0,0,0,0,0,0,0,0,0,0,0,0,0,0,0,0,0,0,0,0,0,0,0,7,76999999,-0.0203009,-0.000635149,0.248149,0.00177871,3.41406e-06,0.00020164,0.999998,1,1,1,1,0,0,0,0,0,0,0,0,0,0,0,0,0,0,0,0,0,0,0,0,0,0,0,0,0,0,0,0,0,0,0,NaN,NaN
7.08,130,7,78000000,1.85747,0.47911,0,0,1.60467,0.129147,0,0,1.60467,-0.129147,0,0,1.85747,-0.47911,0,0,7077,7,78000000,1.82906,0.457487,0.000598446,0.000910694,-0.611435,4.50098,1.57983,0.082023,0.000787506,0.000665583,2.00495,6.47488,1.57792,-0.0726555,-0.000952269,-0.00125232,-7.48951,-2.67516,1.82165,-0.451309,-0.00124207,-0.000535425,-5.72391,0.722733,7077,7,78000000,0.00177865,3.40797e-06,0.000201681,0.999998,-0.000131865,-1.20138e-05,8.24056e-05,-5.5713e-05,0.0349336,9.80992,0,0,0,0,0,0,0,0,0,0,0,0,0,0,0,0,0,0,0,0,0,0,0,0,0,0,0,0,0,0,7,78999999,-0.0203009,-0.000635088,0.248149,0.00177858,3.40195e-06,0.000201723,0.999998,1,1,1,1,0,0,0,0,0,0,0,0,0,0,0,0,0,0,0,0,0,0,0,0,0,0,0,0,0,0,0,0,0,0,0,NaN,NaN
7.08,131,7,78000000,1.85747,0.47911,0,0,1.60467,0.129147,0,0,1.60467,-0.129147,0,0,1.85747,-0.47911,0,0,7078,7,78999999,1.82906,0.457488,0.000596344,0.00091147,-0.611485,4.5009,1.57983,0.0820237,0.00078647,0.000665825,2.00488,6.47482,1.57792,-0.0726566,-0.000964593,-0.00124896,-7.4894,-2.67505,1.82165,-0.45131,-0.00124431,-0.000535838,-5.72379,0.722782,7078,7,78999999,0.00177858,3.40195e-06,0.000201723,0.999998,-0.000132012,-1.18573e-05,8.24052e-05,-5.50197e-05,0.034932,9.80992,0,0,0,0,0,0,0,0,0,0,0,0,0,0,0,0,0,0,0,0,0,0,0,0,0,0,0,0,0,0,7,80000000,-0.0203009,-0.000635057,0.248149,0.00177851,3.39601e-06,0.000201764,0.999998,1,1,1,1,0,0,0,0,0,0,0,0,0,0,0,0,0,0,0,0,0,0,0,0,0,0,0,0,0,0,0,0,0,0,0,NaN,NaN
7.081,132,7,80000000,1.85747,0.47911,0,0,1.60467,0.129147,0,0,1.60467,-0.129147,0,0,1.85747,-0.47911,0,0,7079,7,80000000,1.82906,0.457489,0.000594272,0.000912251,-0.611535,4.50082,1.57983,0.0820244,0.000785338,0.000666055,2.00481,6.47476,1.57792,-0.0726577,-0.000976687,-0.00124552,-7.48929,-2.67494,1.82165,-0.45131,-0.00124687,-0.0005363,-5.72367,0.722831,7079,7,80000000,0.00177851,3.39601e-06,0.000201764,0.999998,-0.000132157,-1.17062e-05,8.24048e-05,-5.43187e-05,0.0349303,9.80992,0,0,0,0,0,0,0,0,0,0,0,0,0,0,0,0,0,0,0,0,0,0,0,0,0,0,0,0,0,0,7,80000000,-0.0203009,-0.000635057,0.248149,0.00177851,3.39601e-06,0.000201764,0.999998,1,1,1,1,0,0,0,0,0,0,0,0,0,0,0,0,0,0,0,0,0,0,0,0,0,0,0,0,0,0,0,0,0,0,0,NaN,NaN
7.083,133,7,80000000,1.85747,0.47911,0,0,1.60467,0.129147,0,0,1.60467,-0.129147,0,0,1.85747,-0.47911,0,0,7080,7,81000000,1.82906,0.457489,0.000592229,0.000913038,-0.611585,4.50073,1.57983,0.0820251,0.000784109,0.000666274,2.00475,6.4747,1.57792,-0.0726588,-0.000988508,-0.00124201,-7.48918,-2.67484,1.82165,-0.451311,-0.00124976,-0.000536812,-5.72356,0.72288,7080,7,81000000,0.00177845,3.39014e-06,0.000201805,0.999998,-0.000132302,-1.15604e-05,8.24044e-05,-5.36094e-05,0.0349287,9.80992,0,0,0,0,0,0,0,0,0,0,0,0,0,0,0,0,0,0,0,0,0,0,0,0,0,0,0,0,0,0,7,81999999,-0.0203009,-0.000634996,0.248149,0.00177838,3.38435e-06,0.000201846,0.999998,1,1,1,1,0,0,0,0,0,0,0,0,0,0,0,0,0,0,0,0,0,0,0,0,0,0,0,0,0,0,0,0,0,0,0,NaN,NaN
7.083,134,7,81000000,1.85747,0.47911,0,0,1.60467,0.129147,0,0,1.60467,-0.129147,0,0,1.85747,-0.47911,0,0,7081,7,81999999,1.82906,0.45749,0.000590213,0.000913831,-0.611635,4.50065,1.57983,0.0820259,0.000782782,0.000666482,2.00468,6.47464,1.57792,-0.0726599,-0.00100001,-0.00123843,-7.48907,-2.67473,1.82165,-0.451312,-0.00125295,-0.000537373,-5.72344,0.722929,7081,7,81999999,0.00177838,3.38435e-06,0.000201846,0.999998,-0.000132444,-1.14199e-05,8.24039e-05,-5.28913e-05,0.034927,9.80992,0,0,0,0,0,0,0,0,0,0,0,0,0,0,0,0,0,0,0,0,0,0,0,0,0,0,0,0,0,0,7,81999999,-0.0203009,-0.000634996,0.248149,0.00177838,3.38435e-06,0.000201846,0.999998,1,1,1,1,0,0,0,0,0,0,0,0,0,0,0,0,0,0,0,0,0,0,0,0,0,0,0,0,0,0,0,0,0,0,0,NaN,NaN
7.084,135,7,83000000,1.85747,0.47911,0,0,1.60467,0.129147,0,0,1.60467,-0.129147,0,0,1.85747,-0.47911,0,0,7082,7,83000000,1.82906,0.457491,0.000588224,0.000914628,-0.611684,4.50056,1.57983,0.0820266,0.000781357,0.000666681,2.00461,6.47458,1.57792,-0.0726611,-0.00101116,-0.00123479,-7.48896,-2.67463,1.82165,-0.451313,-0.00125644,-0.000537985,-5.72332,0.722979,7082,7,83000000,0.00177832,3.37862e-06,0.000201887,0.999998,-0.000132586,-1.12846e-05,8.24035e-05,-5.21639e-05,0.0349254,9.80992,0,0,0,0,0,0,0,0,0,0,0,0,0,0,0,0,0,0,0,0,0,0,0,0,0,0,0,0,0,0,7,83000000,-0.0203009,-0.000634965,0.248149,0.00177832,3.37862e-06,0.000201887,0.999998,1,1,1,1,0,0,0,0,0,0,0,0,0,0,0,0,0,0,0,0,0,0,0,0,0,0,0,0,0,0,0,0,0,0,0,NaN,NaN
7.086,136,7,83000000,1.85747,0.47911,0,0,1.60467,0.129147,0,0,1.60467,-0.129147,0,0,1.85747,-0.47911,0,0,7083,7,84000000,1.82906,0.457492,0.000586261,0.000915431,-0.611733,4.50048,1.57983,0.0820273,0.000779832,0.00066687,2.00454,6.47452,1.57792,-0.0726622,-0.00102191,-0.0012311,-7.48885,-2.67452,1.82165,-0.451314,-0.0012602,-0.000538647,-5.7232,0.723029,7083,7,84000000,0.00177825,3.37295e-06,0.000201929,0.999998,-0.000132726,-1.11544e-05,8.2403e-05,-5.14269e-05,0.0349238,9.80992,0,0,0,0,0,0,0,0,0,0,0,0,0,0,0,0,0,0,0,0,0,0,0,0,0,0,0,0,0,0,7,84999999,-0.020301,-0.000634904,0.248149,0.00177818,3.36735e-06,0.00020197,0.999998,1,1,1,1,0,0,0,0,0,0,0,0,0,0,0,0,0,0,0,0,0,0,0,0,0,0,0,0,0,0,0,0,0,0,0,NaN,NaN
7.086,137,7,84000000,1.85747,0.47911,0,0,1.60467,0.129147,0,0,1.60467,-0.129147,0,0,1.85747,-0.47911,0,0,7084,7,84999999,1.82906,0.457492,0.000584322,0.000916238,-0.611783,4.5004,1.57983,0.082028,0.000778208,0.000667051,2.00447,6.47446,1.57792,-0.0726633,-0.00103223,-0.00122737,-7.48874,-2.67442,1.82165,-0.451315,-0.00126423,-0.000539359,-5.72308,0.723078,7084,7,84999999,0.00177818,3.36735e-06,0.00020197,0.999998,-0.000132865,-1.10293e-05,8.24025e-05,-5.06799e-05,0.0349222,9.80992,0,0,0,0,0,0,0,0,0,0,0,0,0,0,0,0,0,0,0,0,0,0,0,0,0,0,0,0,0,0,7,84999999,-0.020301,-0.000634904,0.248149,0.00177818,3.36735e-06,0.00020197,0.999998,1,1,1,1,0,0,0,0,0,0,0,0,0,0,0,0,0,0,0,0,0,0,0,0,0,0,0,0,0,0,0,0,0,0,0,NaN,NaN
7.088,138,7,86000000,1.85747,0.47911,0,0,1.60467,0.129147,0,0,1.60467,-0.129147,0,0,1.85747,-0.47911,0,0,7085,7,86000000,1.82906,0.457493,0.000582406,0.000917049,-0.611832,4.50031,1.57983,0.0820288,0.000776484,0.000667223,2.00441,6.4744,1.57792,-0.0726645,-0.00104207,-0.0012236,-7.48863,-2.67432,1.82165,-0.451316,-0.00126849,-0.000540121,-5.72296,0.723128,7085,7,86000000,0.00177812,3.36181e-06,0.000202011,0.999998,-0.000133003,-1.0909e-05,8.24019e-05,-4.99228e-05,0.0349207,9.80991,0,0,0,0,0,0,0,0,0,0,0,0,0,0,0,0,0,0,0,0,0,0,0,0,0,0,0,0,0,0,7,86999999,-0.020301,-0.000634842,0.248149,0.00177805,3.35633e-06,0.000202052,0.999998,1,1,1,1,0,0,0,0,0,0,0,0,0,0,0,0,0,0,0,0,0,0,0,0,0,0,0,0,0,0,0,0,0,0,0,NaN,NaN
7.088,139,7,86000000,1.85747,0.47911,0,0,1.60467,0.129147,0,0,1.60467,-0.129147,0,0,1.85747,-0.47911,0,0,7086,7,86999999,1.82906,0.457494,0.000580513,0.000917863,-0.611881,4.50023,1.57983,0.0820295,0.000774659,0.000667387,2.00434,6.47434,1.57792,-0.0726656,-0.00105141,-0.0012198,-7.48852,-2.67421,1.82165,-0.451317,-0.00127298,-0.000540934,-5.72283,0.723178,7086,7,86999999,0.00177805,3.35633e-06,0.000202052,0.999998,-0.00013314,-1.07934e-05,8.24014e-05,-4.91555e-05,0.0349191,9.80991,0,0,0,0,0,0,0,0,0,0,0,0,0,0,0,0,0,0,0,0,0,0,0,0,0,0,0,0,0,0,7,86999999,-0.020301,-0.000634842,0.248149,0.00177805,3.35633e-06,0.000202052,0.999998,1,1,1,1,0,0,0,0,0,0,0,0,0,0,0,0,0,0,0,0,0,0,0,0,0,0,0,0,0,0,0,0,0,0,0,NaN,NaN
7.089,140,7,88000000,1.85747,0.47911,0,0,1.60467,0.129147,0,0,1.60467,-0.129147,0,0,1.85747,-0.47911,0,0,7087,7,88000000,1.82906,0.457495,0.000578642,0.00091868,-0.611929,4.50015,1.57983,0.0820302,0.000772734,0.000667543,2.00428,6.47428,1.57792,-0.0726667,-0.0010602,-0.00121597,-7.48841,-2.67411,1.82165,-0.451318,-0.00127768,-0.000541798,-5.72271,0.723229,7087,7,88000000,0.00177798,3.3509e-06,0.000202093,0.999998,-0.000133276,-1.06824e-05,8.24009e-05,-4.83781e-05,0.0349176,9.80991,0,0,0,0,0,0,0,0,0,0,0,0,0,0,0,0,0,0,0,0,0,0,0,0,0,0,0,0,0,0,7,88000000,-0.020301,-0.000634811,0.248149,0.00177798,3.3509e-06,0.000202093,0.999998,1,1,1,1,0,0,0,0,0,0,0,0,0,0,0,0,0,0,0,0,0,0,0,0,0,0,0,0,0,0,0,0,0,0,0,NaN,NaN
7.091,141,7,88000000,1.85747,0.47911,0,0,1.60467,0.129147,0,0,1.60467,-0.129147,0,0,1.85747,-0.47911,0,0,7088,7,89000000,1.82906,0.457495,0.000576791,0.0009195,-0.611978,4.50006,1.57983,0.0820309,0.000770709,0.000667693,2.00421,6.47422,1.57792,-0.0726679,-0.00106842,-0.00121213,-7.4883,-2.67401,1.82165,-0.451319,-0.00128257,-0.000542711,-5.72259,0.723279,7088,7,89000000,0.00177792,3.34553e-06,0.000202134,0.999998,-0.000133412,-1.05758e-05,8.24004e-05,-4.75906e-05,0.034916,9.80991,0,0,0,0,0,0,0,0,0,0,0,0,0,0,0,0,0,0,0,0,0,0,0,0,0,0,0,0,0,0,7,89999999,-0.020301,-0.000634749,0.248149,0.00177785,3.3402e-06,0.000202176,0.999998,1,1,1,1,0,0,0,0,0,0,0,0,0,0,0,0,0,0,0,0,0,0,0,0,0,0,0,0,0,0,0,0,0,0,0,NaN,NaN
7.091,142,7,89000000,1.85747,0.47911,0,0,1.60467,0.129147,0,0,1.60467,-0.129147,0,0,1.85747,-0.47911,0,0,7089,7,89999999,1.82906,0.457496,0.00057496,0.000920321,-0.612027,4.49998,1.57983,0.0820316,0.000768584,0.000667836,2.00414,6.47416,1.57792,-0.072669,-0.00107604,-0.00120828,-7.48819,-2.67391,1.82165,-0.45132,-0.00128762,-0.000543675,-5.72246,0.72333,7089,7,89999999,0.00177785,3.3402e-06,0.000202176,0.999998,-0.000133546,-1.04732e-05,8.23998e-05,-4.67933e-05,0.0349145,9.80991,0,0,0,0,0,0,0,0,0,0,0,0,0,0,0,0,0,0,0,0,0,0,0,0,0,0,0,0,0,0,7,89999999,-0.020301,-0.000634749,0.248149,0.00177785,3.3402e-06,0.000202176,0.999998,1,1,1,1,0,0,0,0,0,0,0,0,0,0,0,0,0,0,0,0,0,0,0,0,0,0,0,0,0,0,0,0,0,0,0,NaN,NaN
7.092,143,7,91000000,1.85747,0.47911,0,0,1.60467,0.129147,0,0,1.60467,-0.129147,0,0,1.85747,-0.47911,0,0,7090,7,91000000,1.82906,0.457497,0.000573147,0.000921144,-0.612075,4.49989,1.57983,0.0820324,0.000766359,0.000667974,2.00408,6.4741,1.57792,-0.0726702,-0.00108303,-0.00120443,-7.48808,-2.6738,1.82165,-0.45132,-0.00129282,-0.00054469,-5.72234,0.723381,7090,7,91000000,0.00177778,3.33493e-06,0.000202217,0.999998,-0.000133679,-1.03746e-05,8.23993e-05,-4.59866e-05,0.034913,9.80991,0,0,0,0,0,0,0,0,0,0,0,0,0,0,0,0,0,0,0,0,0,0,0,0,0,0,0,0,0,0,7,91000000,-0.020301,-0.000634718,0.248149,0.00177778,3.33493e-06,0.000202217,0.999998,1,1,1,1,0,0,0,0,0,0,0,0,0,0,0,0,0,0,0,0,0,0,0,0,0,0,0,0,0,0,0,0,0,0,0,NaN,NaN
7.094,144,7,91000000,1.85747,0.47911,0,0,1.60467,0.129147,0,0,1.60467,-0.129147,0,0,1.85747,-0.47911,0,0,7091,7,92000000,1.82906,0.457498,0.000571352,0.000921967,-0.612123,4.49981,1.57983,0.0820331,0.000764034,0.000668106,2.00401,6.47404,1.57792,-0.0726713,-0.00108938,-0.00120057,-7.48797,-2.6737,1.82165,-0.451321,-0.00129816,-0.000545754,-5.72221,0.723432,7091,7,92000000,0.00177772,3.3297e-06,0.000202258,0.999998,-0.000133812,-1.02797e-05,8.23988e-05,-4.51709e-05,0.0349115,9.80991,0,0,0,0,0,0,0,0,0,0,0,0,0,0,0,0,0,0,0,0,0,0,0,0,0,0,0,0,0,0,7,92999999,-0.020301,-0.000634656,0.248149,0.00177765,3.32452e-06,0.000202299,0.999998,1,1,1,1,0,0,0,0,0,0,0,0,0,0,0,0,0,0,0,0,0,0,0,0,0,0,0,0,0,0,0,0,0,0,0,NaN,NaN
7.094,145,7,92000000,1.85747,0.47911,0,0,1.60467,0.129147,0,0,1.60467,-0.129147,0,0,1.85747,-0.47911,0,0,7092,7,92999999,1.82906,0.457498,0.000569573,0.000922789,-0.612171,4.49972,1.57983,0.0820338,0.000761612,0.000668233,2.00395,6.47398,1.57792,-0.0726724,-0.00109505,-0.00119673,-7.48786,-2.6736,1.82165,-0.451322,-0.0013036,-0.000546867,-5.72208,0.723483,7092,7,92999999,0.00177765,3.32452e-06,0.000202299,0.999998,-0.000133944,-1.01881e-05,8.23983e-05,-4.43468e-05,0.03491,9.80991,0,0,0,0,0,0,0,0,0,0,0,0,0,0,0,0,0,0,0,0,0,0,0,0,0,0,0,0,0,0,7,92999999,-0.020301,-0.000634656,0.248149,0.00177765,3.32452e-06,0.000202299,0.999998,1,1,1,1,0,0,0,0,0,0,0,0,0,0,0,0,0,0,0,0,0,0,0,0,0,0,0,0,0,0,0,0,0,0,0,NaN,NaN
7.096,146,7,94000000,1.85747,0.47911,0,0,1.60467,0.129147,0,0,1.60467,-0.129147,0,0,1.85747,-0.47911,0,0,7093,7,94000000,1.82907,0.457499,0.000567809,0.000923611,-0.612219,4.49964,1.57983,0.0820345,0.000759091,0.000668356,2.00389,6.47392,1.57792,-0.0726736,-0.00110002,-0.00119289,-7.48775,-2.6735,1.82165,-0.451323,-0.00130913,-0.00054803,-5.72196,0.723534,7093,7,94000000,0.00177758,3.31938e-06,0.00020234,0.999998,-0.000134076,-1.00998e-05,8.23979e-05,-4.35152e-05,0.0349086,9.80991,0,0,0,0,0,0,0,0,0,0,0,0,0,0,0,0,0,0,0,0,0,0,0,0,0,0,0,0,0,0,7,94999999,-0.020301,-0.000634594,0.248149,0.00177752,3.31429e-06,0.000202382,0.999998,1,1,1,1,0,0,0,0,0,0,0,0,0,0,0,0,0,0,0,0,0,0,0,0,0,0,0,0,0,0,0,0,0,0,0,NaN,NaN
7.096,147,7,94000000,1.85747,0.47911,0,0,1.60467,0.129147,0,0,1.60467,-0.129147,0,0,1.85747,-0.47911,0,0,7094,7,94999999,1.82907,0.4575,0.000566059,0.000924431,-0.612267,4.49955,1.57983,0.0820352,0.000756474,0.000668474,2.00382,6.47386,1.57792,-0.0726747,-0.0011043,-0.00118908,-7.48764,-2.6734,1.82165,-0.451324,-0.00131473,-0.000549242,-5.72183,0.723586,7094,7,94999999,0.00177752,3.31429e-06,0.000202382,0.999998,-0.000134207,-1.00143e-05,8.23974e-05,-4.26767e-05,0.0349071,9.80991,0,0,0,0,0,0,0,0,0,0,0,0,0,0,0,0,0,0,0,0,0,0,0,0,0,0,0,0,0,0,7,96000000,-0.020301,-0.000634563,0.248149,0.00177745,3.30924e-06,0.000202423,0.999998,1,1,1,1,0,0,0,0,0,0,0,0,0,0,0,0,0,0,0,0,0,0,0,0,0,0,0,0,0,0,0,0,0,0,0,NaN,NaN
7.097,148,7,96000000,1.85747,0.47911,0,0,1.60467,0.129147,0,0,1.60467,-0.129147,0,0,1.85747,-0.47911,0,0,7095,7,96000000,1.82907,0.457501,0.000564323,0.000925248,-0.612315,4.49947,1.57983,0.0820359,0.000753761,0.000668589,2.00376,6.4738,1.57792,-0.0726759,-0.00110785,-0.00118528,-7.48754,-2.6733,1.82165,-0.451325,-0.00132037,-0.000550502,-5.7217,0.723637,7095,7,96000000,0.00177745,3.30924e-06,0.000202423,0.999998,-0.000134338,-9.93143e-06,8.2397e-05,-4.18324e-05,0.0349057,9.80991,0,0,0,0,0,0,0,0,0,0,0,0,0,0,0,0,0,0,0,0,0,0,0,0,0,0,0,0,0,0,7,96000000,-0.020301,-0.000634563,0.248149,0.00177745,3.30924e-06,0.000202423,0.999998,1,1,1,1,0,0,0,0,0,0,0,0,0,0,0,0,0,0,0,0,0,0,0,0,0,0,0,0,0,0,0,0,0,0,0,NaN,NaN
7.099,149,7,96000000,1.85747,0.47911,0,0,1.60467,0.129147,0,0,1.60467,-0.129147,0,0,1.85747,-0.47911,0,0,7096,7,97000000,1.82907,0.457501,0.000562599,0.000926061,-0.612363,4.49938,1.57983,0.0820366,0.000750954,0.000668701,2.0037,6.47374,1.57792,-0.072677,-0.00111068,-0.00118152,-7.48743,-2.6732,1.82165,-0.451326,-0.00132605,-0.00055181,-5.72157,0.723689,7096,7,97000000,0.00177738,3.30423e-06,0.000202464,0.999998,-0.000134468,-9.85087e-06,8.23966e-05,-4.09835e-05,0.0349043,9.80991,0,0,0,0,0,0,0,0,0,0,0,0,0,0,0,0,0,0,0,0,0,0,0,0,0,0,0,0,0,0,7,97999999,-0.020301,-0.000634501,0.248148,0.00177731,3.29925e-06,0.000202505,0.999998,1,1,1,1,0,0,0,0,0,0,0,0,0,0,0,0,0,0,0,0,0,0,0,0,0,0,0,0,0,0,0,0,0,0,0,NaN,NaN
7.099,150,7,97000000,1.85747,0.47911,0,0,1.60467,0.129147,0,0,1.60467,-0.129147,0,0,1.85747,-0.47911,0,0,7097,7,97999999,1.82907,0.457502,0.000560885,0.00092687,-0.61241,4.4993,1.57983,0.0820373,0.000748054,0.000668811,2.00363,6.47368,1.57792,-0.0726782,-0.00111278,-0.00117778,-7.48733,-2.6731,1.82165,-0.451327,-0.00133173,-0.000553165,-5.72144,0.723741,7097,7,97999999,0.00177731,3.29925e-06,0.000202505,0.999998,-0.000134598,-9.77233e-06,8.23963e-05,-4.01311e-05,0.0349029,9.80991,0,0,0,0,0,0,0,0,0,0,0,0,0,0,0,0,0,0,0,0,0,0,0,0,0,0,0,0,0,0,7,97999999,-0.020301,-0.000634501,0.248148,0.00177731,3.29925e-06,0.000202505,0.999998,1,1,1,1,0,0,0,0,0,0,0,0,0,0,0,0,0,0,0,0,0,0,0,0,0,0,0,0,0,0,0,0,0,0,0,NaN,NaN
7.1,151,7,99000000,1.85747,0.47911,0,0,1.60467,0.129147,0,0,1.60467,-0.129147,0,0,1.85747,-0.47911,0,0,7098,7,99000000,1.82907,0.457503,0.000559182,0.000927674,-0.612457,4.49922,1.57983,0.082038,0.000745063,0.000668918,2.00357,6.47362,1.57792,-0.0726793,-0.00111414,-0.00117408,-7.48723,-2.673,1.82165,-0.451328,-0.0013374,-0.000554566,-5.72131,0.723794,7098,7,99000000,0.00177725,3.29432e-06,0.000202546,0.999998,-0.000134727,-9.69548e-06,8.2396e-05,-3.92767e-05,0.0349014,9.80991,0,0,0,0,0,0,0,0,0,0,0,0,0,0,0,0,0,0,0,0,0,0,0,0,0,0,0,0,0,0,7,99000000,-0.020301,-0.000634469,0.248148,0.00177725,3.29432e-06,0.000202546,0.999998,1,1,1,1,0,0,0,0,0,0,0,0,0,0,0,0,0,0,0,0,0,0,0,0,0,0,0,0,0,0,0,0,0,0,0,NaN,NaN
7.102,152,7,99000000,1.85747,0.47911,0,0,1.60467,0.129147,0,0,1.60467,-0.129147,0,0,1.85747,-0.47911,0,0,7099,7,100000000,1.82907,0.457503,0.000557488,0.000928471,-0.612505,4.49913,1.57983,0.0820387,0.000741983,0.000669023,2.00351,6.47356,1.57792,-0.0726805,-0.00111477,-0.00117042,-7.48713,-2.6729,1.82165,-0.451329,-0.00134303,-0.000556013,-5.72118,0.723846,7099,7,100000000,0.00177718,3.28942e-06,0.000202588,0.999998,-0.000134857,-9.62004e-06,8.23957e-05,-3.84216e-05,0.0349,9.80991,0,0,0,0,0,0,0,0,0,0,0,0,0,0,0,0,0,0,0,0,0,0,0,0,0,0,0,0,0,0,7,100999999,-0.020301,-0.000634407,0.248148,0.00177711,3.28456e-06,0.000202629,0.999998,1,1,1,1,0,0,0,0,0,0,0,0,0,0,0,0,0,0,0,0,0,0,0,0,0,0,0,0,0,0,0,0,0,0,0,NaN,NaN
7.102,153,7,100000000,1.85747,0.47911,0,0,1.60467,0.129147,0,0,1.60467,-0.129147,0,0,1.85747,-0.47911,0,0,7100,7,100999999,1.82907,0.457504,0.000555801,0.000929261,-0.612552,4.49905,1.57983,0.0820395,0.000738814,0.000669126,2.00345,6.4735,1.57792,-0.0726816,-0.00111468,-0.00116681,-7.48703,-2.67281,1.82165,-0.45133,-0.00134861,-0.000557505,-5.72105,0.723899,7100,7,100999999,0.00177711,3.28456e-06,0.000202629,0.999998,-0.000134985,-9.54568e-06,8.23955e-05,-3.75675e-05,0.0348987,9.80991,0,0,0,0,0,0,0,0,0,0,0,0,0,0,0,0,0,0,0,0,0,0,0,0,0,0,0,0,0,0,7,100999999,-0.020301,-0.000634407,0.248148,0.00177711,3.28456e-06,0.000202629,0.999998,1,1,1,1,0,0,0,0,0,0,0,0,0,0,0,0,0,0,0,0,0,0,0,0,0,0,0,0,0,0,0,0,0,0,0,NaN,NaN
7.104,154,7,102000000,1.85747,0.47911,0,0,1.60467,0.129147,0,0,1.60467,-0.129147,0,0,1.85747,-0.47911,0,0,7101,7,102000000,1.82907,0.457505,0.000554121,0.000930042,-0.612599,4.49896,1.57983,0.0820402,0.000735561,0.000669228,2.00339,6.47344,1.57792,-0.0726827,-0.00111387,-0.00116324,-7.48693,-2.67271,1.82166,-0.451331,-0.00135412,-0.000559041,-5.72092,0.723952,7101,7,102000000,0.00177704,3.27974e-06,0.00020267,0.999998,-0.000135114,-9.47208e-06,8.23954e-05,-3.67162e-05,0.0348973,9.80991,0,0,0,0,0,0,0,0,0,0,0,0,0,0,0,0,0,0,0,0,0,0,0,0,0,0,0,0,0,0,7,102999999,-0.020301,-0.000634344,0.248148,0.00177698,3.27495e-06,0.000202711,0.999998,1,1,1,1,0,0,0,0,0,0,0,0,0,0,0,0,0,0,0,0,0,0,0,0,0,0,0,0,0,0,0,0,0,0,0,NaN,NaN
7.104,155,7,102000000,1.85747,0.47911,0,0,1.60467,0.129147,0,0,1.60467,-0.129147,0,0,1.85747,-0.47911,0,0,7102,7,102999999,1.82907,0.457506,0.000552447,0.000930813,-0.612645,4.49887,1.57983,0.0820409,0.000732224,0.000669329,2.00333,6.47338,1.57792,-0.0726839,-0.00111236,-0.00115972,-7.48683,-2.67261,1.82166,-0.451332,-0.00135953,-0.000560619,-5.72079,0.724005,7102,7,102999999,0.00177698,3.27495e-06,0.000202711,0.999998,-0.000135243,-9.39894e-06,8.23953e-05,-3.58694e-05,0.0348959,9.80991,0,0,0,0,0,0,0,0,0,0,0,0,0,0,0,0,0,0,0,0,0,0,0,0,0,0,0,0,0,0,7,102999999,-0.020301,-0.000634344,0.248148,0.00177698,3.27495e-06,0.000202711,0.999998,1,1,1,1,0,0,0,0,0,0,0,0,0,0,0,0,0,0,0,0,0,0,0,0,0,0,0,0,0,0,0,0,0,0,0,NaN,NaN
7.105,156,7,104000000,1.85747,0.47911,0,0,1.60467,0.129147,0,0,1.60467,-0.129147,0,0,1.85747,-0.47911,0,0,7103,7,104000000,1.82907,0.457506,0.000550778,0.000931574,-0.612692,4.49879,1.57983,0.0820416,0.000728806,0.00066943,2.00327,6.47332,1.57792,-0.072685,-0.00111016,-0.00115625,-7.48673,-2.67251,1.82166,-0.451333,-0.00136482,-0.000562239,-5.72065,0.724059,7103,7,104000000,0.00177691,3.2702e-06,0.000202752,0.999998,-0.000135371,-9.32594e-06,8.23952e-05,-3.50292e-05,0.0348945,9.80991,0,0,0,0,0,0,0,0,0,0,0,0,0,0,0,0,0,0,0,0,0,0,0,0,0,0,0,0,0,0,7,104000000,-0.020301,-0.000634313,0.248148,0.00177691,3.2702e-06,0.000202752,0.999998,1,1,1,1,0,0,0,0,0,0,0,0,0,0,0,0,0,0,0,0,0,0,0,0,0,0,0,0,0,0,0,0,0,0,0,NaN,NaN
7.107,157,7,104000000,1.85747,0.47911,0,0,1.60467,0.129147,0,0,1.60467,-0.129147,0,0,1.85747,-0.47911,0,0,7104,7,105000000,1.82907,0.457507,0.000549112,0.000932324,-0.612739,4.4987,1.57983,0.0820423,0.000725311,0.00066953,2.00321,6.47325,1.57792,-0.0726861,-0.0011073,-0.00115284,-7.48664,-2.67241,1.82166,-0.451334,-0.00136998,-0.0005639,-5.72052,0.724112,7104,7,105000000,0.00177684,3.26549e-06,0.000202794,0.999998,-0.000135499,-9.25276e-06,8.23953e-05,-3.41975e-05,0.0348931,9.80991,0,0,0,0,0,0,0,0,0,0,0,0,0,0,0,0,0,0,0,0,0,0,0,0,0,0,0,0,0,0,7,105999999,-0.0203011,-0.00063425,0.248148,0.00177677,3.26081e-06,0.000202835,0.999998,1,1,1,1,0,0,0,0,0,0,0,0,0,0,0,0,0,0,0,0,0,0,0,0,0,0,0,0,0,0,0,0,0,0,0,NaN,NaN
7.107,158,7,105000000,1.85747,0.47911,0,0,1.60467,0.129147,0,0,1.60467,-0.129147,0,0,1.85747,-0.47911,0,0,7105,7,105999999,1.82907,0.457508,0.000547449,0.00093306,-0.612785,4.49862,1.57983,0.0820429,0.00072174,0.00066963,2.00315,6.47319,1.57792,-0.0726873,-0.0011038,-0.00114948,-7.48655,-2.67232,1.82166,-0.451335,-0.00137499,-0.000565599,-5.72039,0.724166,7105,7,105999999,0.00177677,3.26081e-06,0.000202835,0.999998,-0.000135626,-9.17909e-06,8.23954e-05,-3.33764e-05,0.0348917,9.80991,0,0,0,0,0,0,0,0,0,0,0,0,0,0,0,0,0,0,0,0,0,0,0,0,0,0,0,0,0,0,7,105999999,-0.0203011,-0.00063425,0.248148,0.00177677,3.26081e-06,0.000202835,0.999998,1,1,1,1,0,0,0,0,0,0,0,0,0,0,0,0,0,0,0,0,0,0,0,0,0,0,0,0,0,0,0,0,0,0,0,NaN,NaN
7.108,159,7,107000000,1.85747,0.47911,0,0,1.60467,0.129147,0,0,1.60467,-0.129147,0,0,1.85747,-0.47911,0,0,7106,7,107000000,1.82907,0.457509,0.000545788,0.000933782,-0.612831,4.49853,1.57983,0.0820436,0.000718096,0.000669729,2.00309,6.47313,1.57792,-0.0726884,-0.00109968,-0.00114619,-7.48645,-2.67222,1.82166,-0.451336,-0.00137982,-0.000567337,-5.72026,0.72422,7106,7,107000000,0.0017767,3.25617e-06,0.000202876,0.999998,-0.000135754,-9.10463e-06,8.23955e-05,-3.25683e-05,0.0348903,9.80991,0,0,0,0,0,0,0,0,0,0,0,0,0,0,0,0,0,0,0,0,0,0,0,0,0,0,0,0,0,0,7,107000000,-0.0203011,-0.000634218,0.248148,0.0017767,3.25617e-06,0.000202876,0.999998,1,1,1,1,0,0,0,0,0,0,0,0,0,0,0,0,0,0,0,0,0,0,0,0,0,0,0,0,0,0,0,0,0,0,0,NaN,NaN
7.11,160,7,107000000,1.85747,0.47911,0,0,1.60467,0.129147,0,0,1.60467,-0.129147,0,0,1.85747,-0.47911,0,0,7107,7,108000000,1.82907,0.457509,0.000544126,0.000934489,-0.612877,4.49845,1.57983,0.0820443,0.000714382,0.000669829,2.00304,6.47307,1.57792,-0.0726895,-0.00109498,-0.00114295,-7.48636,-2.67212,1.82166,-0.451337,-0.00138446,-0.000569111,-5.72012,0.724275,7107,7,108000000,0.00177664,3.25157e-06,0.000202917,0.999998,-0.000135881,-9.02907e-06,8.23957e-05,-3.17752e-05,0.0348889,9.80991,0,0,0,0,0,0,0,0,0,0,0,0,0,0,0,0,0,0,0,0,0,0,0,0,0,0,0,0,0,0,7,108999999,-0.0203011,-0.000634155,0.248148,0.00177657,3.24701e-06,0.000202958,0.999998,1,1,1,1,0,0,0,0,0,0,0,0,0,0,0,0,0,0,0,0,0,0,0,0,0,0,0,0,0,0,0,0,0,0,0,NaN,NaN
7.11,161,7,108000000,1.85747,0.47911,0,0,1.60467,0.129147,0,0,1.60467,-0.129147,0,0,1.85747,-0.47911,0,0,7108,7,108999999,1.82907,0.45751,0.000542465,0.000935179,-0.612923,4.49836,1.57983,0.082045,0.000710603,0.000669929,2.00298,6.47301,1.57792,-0.0726906,-0.00108973,-0.00113978,-7.48627,-2.67202,1.82166,-0.451338,-0.00138889,-0.000570921,-5.71999,0.724329,7108,7,108999999,0.00177657,3.24701e-06,0.000202958,0.999998,-0.000136008,-8.95213e-06,8.23961e-05,-3.09997e-05,0.0348875,9.80991,0,0,0,0,0,0,0,0,0,0,0,0,0,0,0,0,0,0,0,0,0,0,0,0,0,0,0,0,0,0,7,108999999,-0.0203011,-0.000634155,0.248148,0.00177657,3.24701e-06,0.000202958,0.999998,1,1,1,1,0,0,0,0,0,0,0,0,0,0,0,0,0,0,0,0,0,0,0,0,0,0,0,0,0,0,0,0,0,0,0,NaN,NaN
7.112,162,7,110000000,1.85747,0.47911,0,0,1.60467,0.129147,0,0,1.60467,-0.129147,0,0,1.85747,-0.47911,0,0,7109,7,110000000,1.82907,0.457511,0.000540801,0.000935851,-0.612969,4.49828,1.57983,0.0820457,0.00070676,0.000670029,2.00292,6.47295,1.57792,-0.0726917,-0.00108398,-0.00113667,-7.48619,-2.67193,1.82166,-0.451339,-0.00139309,-0.000572764,-5.71986,0.724384,7109,7,110000000,0.0017765,3.24248e-06,0.000202999,0.999998,-0.000136134,-8.8735e-06,8.23964e-05,-3.0244e-05,0.0348861,9.80991,0,0,0,0,0,0,0,0,0,0,0,0,0,0,0,0,0,0,0,0,0,0,0,0,0,0,0,0,0,0,7,110999999,-0.0203011,-0.000634092,0.248148,0.00177643,3.238e-06,0.000203041,0.999998,1,1,1,1,0,0,0,0,0,0,0,0,0,0,0,0,0,0,0,0,0,0,0,0,0,0,0,0,0,0,0,0,0,0,0,NaN,NaN
